Pelvis_pos_x,Pelvis_vel_x,Pelvis_acc_x,Pelvis_jerk_x,Pelvis_pos_y,Pelvis_vel_y,Pelvis_acc_y,Pelvis_jerk_y,Pelvis_pos_z,Pelvis_vel_z,Pelvis_acc_z,Pelvis_jerk_z,L5_pos_x,L5_vel_x,L5_acc_x,L5_jerk_x,L5_pos_y,L5_vel_y,L5_acc_y,L5_jerk_y,L5_pos_z,L5_vel_z,L5_acc_z,L5_jerk_z,L3_pos_x,L3_vel_x,L3_acc_x,L3_jerk_x,L3_pos_y,L3_vel_y,L3_acc_y,L3_jerk_y,L3_pos_z,L3_vel_z,L3_acc_z,L3_jerk_z,T12_pos_x,T12_vel_x,T12_acc_x,T12_jerk_x,T12_pos_y,T12_vel_y,T12_acc_y,T12_jerk_y,T12_pos_z,T12_vel_z,T12_acc_z,T12_jerk_z,T8_pos_x,T8_vel_x,T8_acc_x,T8_jerk_x,T8_pos_y,T8_vel_y,T8_acc_y,T8_jerk_y,T8_pos_z,T8_vel_z,T8_acc_z,T8_jerk_z,Neck_pos_x,Neck_vel_x,Neck_acc_x,Neck_jerk_x,Neck_pos_y,Neck_vel_y,Neck_acc_y,Neck_jerk_y,Neck_pos_z,Neck_vel_z,Neck_acc_z,Neck_jerk_z,Head_pos_x,Head_vel_x,Head_acc_x,Head_jerk_x,Head_pos_y,Head_vel_y,Head_acc_y,Head_jerk_y,Head_pos_z,Head_vel_z,Head_acc_z,Head_jerk_z,RightShoulder_pos_x,RightShoulder_vel_x,RightShoulder_acc_x,RightShoulder_jerk_x,RightShoulder_pos_y,RightShoulder_vel_y,RightShoulder_acc_y,RightShoulder_jerk_y,RightShoulder_pos_z,RightShoulder_vel_z,RightShoulder_acc_z,RightShoulder_jerk_z,RightUpperArm_pos_x,RightUpperArm_vel_x,RightUpperArm_acc_x,RightUpperArm_jerk_x,RightUpperArm_pos_y,RightUpperArm_vel_y,RightUpperArm_acc_y,RightUpperArm_jerk_y,RightUpperArm_pos_z,RightUpperArm_vel_z,RightUpperArm_acc_z,RightUpperArm_jerk_z,RightForearm_pos_x,RightForearm_vel_x,RightForearm_acc_x,RightForearm_jerk_x,RightForearm_pos_y,RightForearm_vel_y,RightForearm_acc_y,RightForearm_jerk_y,RightForearm_pos_z,RightForearm_vel_z,RightForearm_acc_z,RightForearm_jerk_z,RightHand_pos_x,RightHand_vel_x,RightHand_acc_x,RightHand_jerk_x,RightHand_pos_y,RightHand_vel_y,RightHand_acc_y,RightHand_jerk_y,RightHand_pos_z,RightHand_vel_z,RightHand_acc_z,RightHand_jerk_z,LeftShoulder_pos_x,LeftShoulder_vel_x,LeftShoulder_acc_x,LeftShoulder_jerk_x,LeftShoulder_pos_y,LeftShoulder_vel_y,LeftShoulder_acc_y,LeftShoulder_jerk_y,LeftShoulder_pos_z,LeftShoulder_vel_z,LeftShoulder_acc_z,LeftShoulder_jerk_z,LeftUpperArm_pos_x,LeftUpperArm_vel_x,LeftUpperArm_acc_x,LeftUpperArm_jerk_x,LeftUpperArm_pos_y,LeftUpperArm_vel_y,LeftUpperArm_acc_y,LeftUpperArm_jerk_y,LeftUpperArm_pos_z,LeftUpperArm_vel_z,LeftUpperArm_acc_z,LeftUpperArm_jerk_z,LeftForearm_pos_x,LeftForearm_vel_x,LeftForearm_acc_x,LeftForearm_jerk_x,LeftForearm_pos_y,LeftForearm_vel_y,LeftForearm_acc_y,LeftForearm_jerk_y,LeftForearm_pos_z,LeftForearm_vel_z,LeftForearm_acc_z,LeftForearm_jerk_z,LeftHand_pos_x,LeftHand_vel_x,LeftHand_acc_x,LeftHand_jerk_x,LeftHand_pos_y,LeftHand_vel_y,LeftHand_acc_y,LeftHand_jerk_y,LeftHand_pos_z,LeftHand_vel_z,LeftHand_acc_z,LeftHand_jerk_z,RightUpperLeg_pos_x,RightUpperLeg_vel_x,RightUpperLeg_acc_x,RightUpperLeg_jerk_x,RightUpperLeg_pos_y,RightUpperLeg_vel_y,RightUpperLeg_acc_y,RightUpperLeg_jerk_y,RightUpperLeg_pos_z,RightUpperLeg_vel_z,RightUpperLeg_acc_z,RightUpperLeg_jerk_z,RightLowerLeg_pos_x,RightLowerLeg_vel_x,RightLowerLeg_acc_x,RightLowerLeg_jerk_x,RightLowerLeg_pos_y,RightLowerLeg_vel_y,RightLowerLeg_acc_y,RightLowerLeg_jerk_y,RightLowerLeg_pos_z,RightLowerLeg_vel_z,RightLowerLeg_acc_z,RightLowerLeg_jerk_z,RightFoot_pos_x,RightFoot_vel_x,RightFoot_acc_x,RightFoot_jerk_x,RightFoot_pos_y,RightFoot_vel_y,RightFoot_acc_y,RightFoot_jerk_y,RightFoot_pos_z,RightFoot_vel_z,RightFoot_acc_z,RightFoot_jerk_z,RightToe_pos_x,RightToe_vel_x,RightToe_acc_x,RightToe_jerk_x,RightToe_pos_y,RightToe_vel_y,RightToe_acc_y,RightToe_jerk_y,RightToe_pos_z,RightToe_vel_z,RightToe_acc_z,RightToe_jerk_z,LeftUpperLeg_pos_x,LeftUpperLeg_vel_x,LeftUpperLeg_acc_x,LeftUpperLeg_jerk_x,LeftUpperLeg_pos_y,LeftUpperLeg_vel_y,LeftUpperLeg_acc_y,LeftUpperLeg_jerk_y,LeftUpperLeg_pos_z,LeftUpperLeg_vel_z,LeftUpperLeg_acc_z,LeftUpperLeg_jerk_z,LeftLowerLeg_pos_x,LeftLowerLeg_vel_x,LeftLowerLeg_acc_x,LeftLowerLeg_jerk_x,LeftLowerLeg_pos_y,LeftLowerLeg_vel_y,LeftLowerLeg_acc_y,LeftLowerLeg_jerk_y,LeftLowerLeg_pos_z,LeftLowerLeg_vel_z,LeftLowerLeg_acc_z,LeftLowerLeg_jerk_z,LeftFoot_pos_x,LeftFoot_vel_x,LeftFoot_acc_x,LeftFoot_jerk_x,LeftFoot_pos_y,LeftFoot_vel_y,LeftFoot_acc_y,LeftFoot_jerk_y,LeftFoot_pos_z,LeftFoot_vel_z,LeftFoot_acc_z,LeftFoot_jerk_z,LeftToe_pos_x,LeftToe_vel_x,LeftToe_acc_x,LeftToe_jerk_x,LeftToe_pos_y,LeftToe_vel_y,LeftToe_acc_y,LeftToe_jerk_y,LeftToe_pos_z,LeftToe_vel_z,LeftToe_acc_z,LeftToe_jerk_z
4.630471416674173,0.000000000000000,0.000000000000000,0.000000000000000,10.382586027123565,0.000000000000000,0.000000000000000,0.000000000000000,0.948267126319282,0.000000000000000,0.000000000000000,0.000000000000000,5.112946274716929,0.000000000000000,0.000000000000000,0.000000000000000,10.045676107988507,0.000000000000000,0.000000000000000,0.000000000000000,1.013676767535954,0.000000000000000,0.000000000000000,0.000000000000000,5.784921639187418,0.000000000000000,0.000000000000000,0.000000000000000,9.947917874219403,0.000000000000000,0.000000000000000,0.000000000000000,1.180960586190033,0.000000000000000,0.000000000000000,0.000000000000000,5.414790246531775,0.000000000000000,0.000000000000000,0.000000000000000,9.949009813109242,0.000000000000000,0.000000000000000,0.000000000000000,1.311397609854787,0.000000000000000,0.000000000000000,0.000000000000000,5.722711898490395,0.000000000000000,0.000000000000000,0.000000000000000,10.132679078896899,0.000000000000000,0.000000000000000,0.000000000000000,1.349769131884875,0.000000000000000,0.000000000000000,0.000000000000000,5.244847615483674,0.000000000000000,0.000000000000000,0.000000000000000,10.366891501338818,0.000000000000000,0.000000000000000,0.000000000000000,1.488403325713957,0.000000000000000,0.000000000000000,0.000000000000000,5.429469064595486,0.000000000000000,0.000000000000000,0.000000000000000,9.836646981652697,0.000000000000000,0.000000000000000,0.000000000000000,1.561510035461261,0.000000000000000,0.000000000000000,0.000000000000000,5.704136831667462,0.000000000000000,0.000000000000000,0.000000000000000,9.443871331787212,0.000000000000000,0.000000000000000,0.000000000000000,1.299284572772499,0.000000000000000,0.000000000000000,0.000000000000000,5.042646679673638,0.000000000000000,0.000000000000000,0.000000000000000,10.243518229924453,0.000000000000000,0.000000000000000,0.000000000000000,1.439106197773202,0.000000000000000,0.000000000000000,0.000000000000000,5.007012803790758,0.000000000000000,0.000000000000000,0.000000000000000,10.703944479172449,0.000000000000000,0.000000000000000,0.000000000000000,1.015809725904975,0.000000000000000,0.000000000000000,0.000000000000000,4.861895817762376,0.000000000000000,0.000000000000000,0.000000000000000,10.608571102812753,0.000000000000000,0.000000000000000,0.000000000000000,0.865457985674363,0.000000000000000,0.000000000000000,0.000000000000000,5.463478826851691,0.000000000000000,0.000000000000000,0.000000000000000,9.677776297590917,0.000000000000000,0.000000000000000,0.000000000000000,1.384206152181154,0.000000000000000,0.000000000000000,0.000000000000000,5.373339670494359,0.000000000000000,0.000000000000000,0.000000000000000,9.458737514950066,0.000000000000000,0.000000000000000,0.000000000000000,1.302431812698853,0.000000000000000,0.000000000000000,0.000000000000000,5.185830784629318,0.000000000000000,0.000000000000000,0.000000000000000,9.917866252378683,0.000000000000000,0.000000000000000,0.000000000000000,1.106938136120203,0.000000000000000,0.000000000000000,0.000000000000000,5.100688721874971,0.000000000000000,0.000000000000000,0.000000000000000,9.798887367272608,0.000000000000000,0.000000000000000,0.000000000000000,0.761750257720707,0.000000000000000,0.000000000000000,0.000000000000000,5.189794516196396,0.000000000000000,0.000000000000000,0.000000000000000,10.382152446580037,0.000000000000000,0.000000000000000,0.000000000000000,0.906732027456378,0.000000000000000,0.000000000000000,0.000000000000000,5.098512557359079,0.000000000000000,0.000000000000000,0.000000000000000,10.608501639629003,0.000000000000000,0.000000000000000,0.000000000000000,0.552853186761769,0.000000000000000,0.000000000000000,0.000000000000000,5.429902252634887,0.000000000000000,0.000000000000000,0.000000000000000,9.820957529990254,0.000000000000000,0.000000000000000,0.000000000000000,0.087332689928997,0.000000000000000,0.000000000000000,0.000000000000000,4.981957966376502,0.000000000000000,0.000000000000000,0.000000000000000,11.010282000541181,0.000000000000000,0.000000000000000,0.000000000000000,0.023224643575019,0.000000000000000,0.000000000000000,0.000000000000000,5.484050488676128,0.000000000000000,0.000000000000000,0.000000000000000,11.137295065967052,0.000000000000000,0.000000000000000,0.000000000000000,0.835724739494910,0.000000000000000,0.000000000000000,0.000000000000000,5.436085594614485,0.000000000000000,0.000000000000000,0.000000000000000,9.803178927430455,0.000000000000000,0.000000000000000,0.000000000000000,0.507504299060187,0.000000000000000,0.000000000000000,0.000000000000000,5.667764625316628,0.000000000000000,0.000000000000000,0.000000000000000,9.649279447655193,0.000000000000000,0.000000000000000,0.000000000000000,0.101771783588123,0.000000000000000,0.000000000000000,0.000000000000000,5.085987058737171,0.000000000000000,0.000000000000000,0.000000000000000,9.815289822540006,0.000000000000000,0.000000000000000,0.000000000000000,0.032663502651150,0.000000000000000,0.000000000000000,0.000000000000000
5.241642284491267,0.006111403113113,0.000030556507300,0.000000101953478,10.645083967176779,0.002624848160314,0.000013124022502,0.000000043789027,0.893141725785810,-0.000551226444472,-0.000002756086379,-0.000000009195835,4.796856191574459,-0.003160742796921,-0.000015803451116,-0.000000052729089,10.138036975860093,0.000923562501361,0.000004617735697,0.000000015407331,1.029933420867004,0.000162558405526,0.000000812778508,0.000000002711880,4.994844093242632,-0.007900380447016,-0.000039501245187,-0.000000131798090,9.451976844885463,-0.004959162339359,-0.000024795399260,-0.000000082731222,1.105996748310458,-0.000749600899376,-0.000003747942155,-0.000000012505216,5.396443198519393,-0.000183461307211,-0.000000917291278,-0.000000003060593,10.150137419328530,0.002011175505095,0.000010055710263,0.000000033551434,1.201711824015413,-0.001096803019158,-0.000005483923878,-0.000000018297415,5.748423663811082,0.000257104798181,0.000001285502608,0.000000004289151,9.721109438204222,-0.004115490635828,-0.000020577110907,-0.000000068656669,1.325833841383013,-0.000239340938171,-0.000001196684786,-0.000000003992805,5.423714959914132,0.001788584016596,0.000008942771332,0.000000029838051,10.106031032143967,-0.002608474270411,-0.000013042154414,-0.000000043515870,1.467361264535507,-0.000210410091455,-0.000001052032958,-0.000000003510166,5.228120802827392,-0.002013381950263,-0.000010066742305,-0.000000033588243,10.122943461853666,0.002862821663315,0.000014313870225,0.000000047759020,1.549353364035873,-0.000121560636323,-0.000000607793072,-0.000000002027935,5.345376889526166,-0.003587420053403,-0.000017936801913,-0.000000059847132,10.046668050912396,0.006027665812989,0.000030137827764,0.000000100556530,1.378316518206355,0.000790279941001,0.000003951333980,0.000000013183844,5.330170483643574,0.002875094287383,0.000014375232325,0.000000047963758,10.764267308008975,0.005207230423668,0.000026035719050,0.000000086869617,1.291913328967203,-0.001471855096533,-0.000007359153073,-0.000000024554221,5.369130182342311,0.003620992738899,0.000018104662549,0.000000060407208,10.571369539675329,-0.001325683111921,-0.000006628305307,-0.000000022115707,0.992774132178377,-0.000230344420237,-0.000001151702944,-0.000000003842721,4.945676644735640,0.000837766382112,0.000004188762236,0.000000013976037,10.488842290268236,-0.001197228265031,-0.000005986041756,-0.000000019972760,0.874615398244782,0.000091569547303,0.000000457840121,0.000000001527609,5.497001307563053,0.000335208046991,0.000001676012357,0.000000005592108,10.404826976172163,0.007270143284713,0.000036350111790,0.000000121284159,1.395472144014494,0.000112654285713,0.000000563262059,0.000000001879355,5.736722950033363,0.003633651115865,0.000018167953381,0.000000060618382,10.289312819025580,0.008305337780794,0.000041525998177,0.000000138553791,1.292196113088923,-0.000102351878591,-0.000000511750881,-0.000000001707485,5.213377033109656,0.000275448712598,0.000001377220655,0.000000004595173,9.715030752789156,-0.002028253584908,-0.000010141099241,-0.000000033836339,0.991505727486662,-0.001154266373980,-0.000005771235873,-0.000000019256048,5.351187889985230,0.002504866439870,0.000012524123878,0.000000041787432,10.331734741338503,0.005328207334737,0.000026640593544,0.000000088887815,0.889796536002197,0.001280398763945,0.000006401887333,0.000000021360251,4.949871749545554,-0.002399107713124,-0.000011995339040,-0.000000040023112,10.092083200895383,-0.002900547431894,-0.000014502495931,-0.000000048388380,0.976574279560413,0.000698387602243,0.000003491879929,0.000000011650851,5.336131680538381,0.002376072430153,0.000011880164541,0.000000039638826,10.369076365590532,-0.002394133035730,-0.000011970466067,-0.000000039940122,0.527973111513822,-0.000248788313271,-0.000001243920875,-0.000000004150411,5.406940023622512,-0.000229610809775,-0.000001148034953,-0.000000003830482,10.187594610049018,0.003666187494271,0.000018330632567,0.000000061161170,0.095115716669191,0.000077826376148,0.000000389125408,0.000000001298338,4.628871287497526,-0.003530690257222,-0.000017653157650,-0.000000058900737,9.930156761873405,-0.010800712360069,-0.000054002663541,-0.000000180182875,0.021736520729693,-0.000014880484441,-0.000000074401185,-0.000000000248244,5.120472455719762,-0.003635598552669,-0.000018177690403,-0.000000060650870,10.512674056433307,-0.006245897805657,-0.000031228969578,-0.000000104197185,0.941691632869527,0.001059615953832,0.000005297991644,0.000000017677042,5.384989725477005,-0.000510933145144,-0.000002554623233,-0.000000008523642,10.135776026480720,0.003325804703042,0.000016628746919,0.000000055482734,0.555048685405688,0.000475420092847,0.000002377060925,0.000000007931195,5.826306171911849,0.001585336200465,0.000007926549155,0.000000026447370,10.382313912329481,0.007329978153949,0.000036649281160,0.000000122282355,0.096766077540154,-0.000050054557794,-0.000000250268626,-0.000000000835035,5.525448207981444,0.004394391776519,0.000021971593416,0.000000073309437,9.717653507304604,-0.000976314337452,-0.000004881490490,-0.000000016287363,0.029029725676555,-0.000036335952979,-0.000000181676743,-0.000000000606175
5.382517536957450,0.023602155224984,0.000278831341598,0.000002003629458,10.873434003205043,0.030506391937768,0.000408510965381,0.000003071382494,0.900400148928852,-0.017128776735367,-0.000252142615545,-0.000001952472266,4.905244502841832,0.004374820342174,0.000086389690585,0.000000718808898,10.172226957128180,0.006909462970098,0.000090986986800,0.000000680252586,1.042095023987218,0.033242662325318,0.000495792928814,0.000003853798996,5.121502969389764,0.009350067334241,0.000206584719888,0.000001755985160,9.639495942450159,0.019649500082903,0.000325578386940,0.000002603476260,1.103872353719733,-0.055603553848807,-0.000826336114343,-0.000006416499953,5.314434215040271,-0.005303246543893,-0.000069513224782,-0.000000518889887,10.121922875075905,-0.001689012155352,-0.000042624485408,-0.000000370325663,1.187179893929907,-0.043103428698029,-0.000634123813653,-0.000004909499584,5.671381228492853,0.000092098668384,0.000006514019658,0.000000062134308,9.782214387344732,0.002549841554994,0.000073290176080,0.000000648574912,1.305966991031746,-0.079195909321473,-0.001183545845620,-0.000009205049946,5.469458346097121,0.028034390594504,0.000398052419311,0.000003049175528,10.517923639760957,0.050666762071387,0.000744891396420,0.000005765943904,1.434666406664551,-0.223086688098641,-0.003340890497657,-0.000025999388115,5.342650987111196,0.001088540129078,0.000025008864406,0.000000214024228,10.012877867379766,-0.003978370648424,-0.000077296235776,-0.000000641009276,1.550633157806109,0.012041379253310,0.000181706288816,0.000001417139304,5.177950228959230,-0.014897837209228,-0.000170851699970,-0.000001213166088,9.964723574458025,-0.003372815859190,-0.000102671710186,-0.000000915232491,1.345493417635237,-0.094499409945060,-0.001422096039930,-0.000011082363988,5.379641004162043,0.004245514256511,0.000029985946444,0.000000158503541,11.034078336725189,0.015255483269861,0.000149781619871,0.000000990313588,1.391098189560052,0.331076531096951,0.004970893870045,0.000038712820006,5.379163013234749,0.000414835456328,-0.000030988843595,-0.000000324050908,10.742752511573386,-0.000051862066335,-0.000004658338445,-0.000000044900954,1.107415941642062,0.420403259063173,0.006296820077960,0.000049005095956,4.993261797259779,-0.007894310899754,-0.000131548652977,-0.000001053425524,10.088685397524561,-0.034134223050536,-0.000460024352622,-0.000003465993867,0.829700915215921,-0.130547438439098,-0.001954614768629,-0.000015210190001,5.420722309066739,-0.002088193771080,-0.000027047338225,-0.000000201073261,10.446371308481352,0.010023441607714,0.000073498145316,0.000000401275280,1.386715632381098,-0.033119059313880,-0.000497031368995,-0.000003870320615,5.372476867586383,-0.006096206392946,-0.000091355822196,-0.000000711081755,10.345230916255071,0.007215184663033,0.000019586090199,-0.000000044695361,1.343128422396657,0.027133955503088,0.000402935617753,0.000003128103961,5.272416246786386,0.002205998846595,0.000024431937926,0.000000170961284,9.943825657659993,0.006672732222023,0.000097494205072,0.000000753291294,1.093618054234013,0.370853559704665,0.005564074314636,0.000043323459340,5.511741169814391,0.012247415681068,0.000142608079243,0.000001018878239,10.268729191889090,0.007220932090905,0.000061333300572,0.000000373016204,0.873796188948537,-0.070567991742220,-0.001069711752078,-0.000008353432228,4.863469950924710,-0.013515584842556,-0.000170102350986,-0.000001251788295,9.914935223306879,-0.021563916384052,-0.000276738141395,-0.000002050688437,0.957651485598596,-0.043366489462660,-0.000655581651595,-0.000005115521725,5.422284113186637,0.004569101553271,0.000036161847624,0.000000209528784,10.299233675018160,-0.007170529842204,-0.000076633058759,-0.000000527853668,0.542702706149794,0.058529702776931,0.000878950868054,0.000006845550322,5.252707099309621,-0.003658009203215,-0.000037151789690,-0.000000249840051,10.373051915409425,0.015487466876487,0.000177105528326,0.000001256094022,0.090293237803164,-0.020632547656892,-0.000309780848781,-0.000002412535047,5.049552681913687,0.019160254423549,0.000280641870008,0.000002169972208,9.829674602833416,-0.005353559439531,0.000037746446838,0.000000556493664,0.022794491504209,0.003501931511854,0.000052571407989,0.000000409403567,5.058729476330174,-0.030624582719210,-0.000416835850155,-0.000003150773509,9.940598371694191,-0.066304881789052,-0.000874904600899,-0.000006545601198,0.950295438400488,0.099971435204289,0.001488099169440,0.000011560484801,5.232588353874356,-0.014453224587557,-0.000196448299802,-0.000001484232471,10.031263306234019,-0.011953483389003,-0.000202106447898,-0.000001624284562,0.548593197088431,-0.009880729897607,-0.000152317804172,-0.000001195048115,5.593793925104657,-0.004558892633774,-0.000060986308307,-0.000000458370479,10.640643752255409,0.022741756338449,0.000241996069447,0.000001663606297,0.094907672504236,-0.009015876090421,-0.000134550316830,-0.000001046048424,5.549539593277217,0.011474971736805,0.000125772062282,0.000000876119312,9.868649755698090,0.014263260569107,0.000208611103286,0.000001612324926,0.030998900467596,0.007300517713638,0.000109673009345,0.000000854256996
5.501934550154798,0.020187971945585,0.000180604310691,0.000000782903463,10.694532800582977,-0.008520420593101,-0.000399716156763,-0.000006127686229,0.911402647472733,0.134728055630989,0.003042414585125,0.000036152511246,4.947158459183641,0.031191226655563,0.000660380879485,0.000007331657271,10.262725419437308,0.049861724407303,0.001006816496668,0.000011224647585,1.008770899406960,-0.366902011063210,-0.008229340540152,-0.000097437361214,5.180854518311327,0.012900364637293,0.000269112962272,0.000002415674846,9.692671877581736,0.021750582276736,0.000356546046841,0.000002890990384,1.147674639077645,0.367092883282076,0.008423328154716,0.000101248702824,5.402697622419037,0.051735719314564,0.001147797222426,0.000013474288973,10.513094921995076,0.105464416194473,0.002200270620367,0.000025262897360,1.211249566583132,-0.007061141228614,0.000171887326582,0.000004638168888,5.424796075213660,-0.088501308140343,-0.001869550973635,-0.000021487984821,9.582036496932115,-0.109046906458403,-0.002309938160803,-0.000026787817949,1.356226021608653,0.625514182934871,0.014195874165783,0.000169439773950,5.404121026213993,-0.017282447199576,-0.000574554893353,-0.000008173081922,10.392051927199384,-0.019277761502305,-0.000749168901447,-0.000011437723918,1.478595592406984,0.341005389253994,0.008955172932944,0.000116712009235,5.270567239002497,-0.025603288929460,-0.000538820254089,-0.000006248447915,9.914019659254741,-0.042164157538690,-0.000885817003459,-0.000009920014447,1.550993684138359,0.102341981984812,0.002148300350285,0.000024220042772,5.177826312057802,-0.026712854048184,-0.000425848726851,-0.000004150388917,9.778628322730578,-0.037370361077098,-0.000801494091540,-0.000008853807605,1.310849207453148,-0.353609549525797,-0.007048816523085,-0.000076221130077,5.149629040010833,-0.070676044144315,-0.001545514915337,-0.000017866276519,10.738543893908478,-0.093528581450807,-0.002145973126877,-0.000025306347027,1.385976520327998,0.477547236293133,0.008117035370307,0.000074816434789,5.263768081951145,-0.034957287302172,-0.000775686772749,-0.000008858150787,10.639836065796597,-0.047717192293451,-0.001017401459318,-0.000011677183063,1.128173202795728,0.652828886692628,0.011355875203667,0.000107659603468,5.093570284019219,0.029741704218273,0.000663993741277,0.000008068148137,10.303717967185172,0.030007345898639,0.000886298825650,0.000011933791245,0.845345717159109,-0.049008228709505,-0.000181402478181,0.000005344902322,5.229483316134966,-0.051739492935452,-0.001063447713166,-0.000012030917318,10.381927070398669,-0.041788172674715,-0.001037295964910,-0.000012394776794,1.403783229360164,0.250127559940122,0.005653457957484,0.000067308808785,5.333590899371653,-0.005302923163757,-0.000061396107209,-0.000000295681405,10.440066764127375,0.016541852731038,0.000218899056746,0.000002329189372,1.347424656710390,0.031242891212781,0.000501390040011,0.000004349432838,5.346788732485376,0.019001953221708,0.000373416637293,0.000004150246204,10.001212369233837,0.026413639378754,0.000513386425508,0.000005514694377,1.108757382366649,0.446472790109195,0.007217303948968,0.000062559314220,5.495810573377867,0.019106486503494,0.000295227708279,0.000002799801208,10.332092663479601,0.025474119940922,0.000445162874954,0.000004771487016,0.862185178455119,-0.201204656904979,-0.003911093643420,-0.000041279520368,5.007044959756016,-0.017266368351580,-0.000278977450684,-0.000002599554219,9.635814005713227,-0.072977851315223,-0.001334529815921,-0.000014073183803,0.938119566004970,-0.175561160994396,-0.003530396514053,-0.000038433160592,5.446149080258547,0.004559360458026,0.000031492972140,0.000000141699310,10.240932854329523,-0.015777496664195,-0.000250916381931,-0.000002496053967,0.523822146186274,-0.130552838848304,-0.003241650225415,-0.000040974769235,5.218623435058873,-0.002856157069923,-0.000012822128206,0.000000056036215,10.432525968117492,0.026724594867746,0.000408840061343,0.000003893009523,0.089101128999021,-0.032138912863010,-0.000560258813303,-0.000005316956973,5.096595462687508,0.028670873595182,0.000477660843056,0.000004416203218,9.848563832859394,0.004591806050148,0.000249367594030,0.000002987247894,0.023617908949040,0.011167552540415,0.000220437989061,0.000002364392329,5.078698555966249,-0.035914124018555,-0.000536710982143,-0.000004559988980,9.893632862433844,-0.081258703938557,-0.001191751656658,-0.000010191728696,0.967337681728773,0.267915110912327,0.005159741946251,0.000054268565983,5.235117591210358,-0.002813806938191,0.000055547973755,0.000001427707342,10.119335793768554,0.012683640381131,0.000314833958217,0.000004292544614,0.539623562508666,-0.120444349285937,-0.002560766227228,-0.000029134598741,5.542073550459153,-0.011636473384595,-0.000203671900984,-0.000002068030613,10.656394326512572,0.020919367551819,0.000199344197668,0.000001159733445,0.092804825536352,-0.029002989054157,-0.000568629103376,-0.000006071062797,5.478751436674275,0.018771448800626,0.000298197502230,0.000002918422153,10.045546245685117,0.051253624155646,0.000973714368185,0.000010319452780,0.031437974054939,0.009606018073529,0.000160138707498,0.000001441958990
5.484272756960444,-0.031367977780308,-0.001281933720988,-0.000021666813071,10.532272164276288,-0.110359503885289,-0.003236585462310,-0.000049376206101,0.941146278015486,0.668287833718185,0.018429815197424,0.000274752522294,5.060085661608568,0.003985101195020,-0.000157833340975,-0.000005479689423,10.027994011240773,-0.058963447349693,-0.002016624870552,-0.000034894239923,1.028065011512253,0.096213388879761,0.005228786716915,0.000112268411446,5.173014453844150,0.071682482744759,0.001948584183715,0.000028267308252,9.895326251235357,0.141687488669219,0.003711750373357,0.000054203488609,1.122613083148706,-0.225284221766922,-0.008833177798247,-0.000168019307921,5.339346432407527,0.050583737804669,0.001138609410562,0.000013457394928,10.582906674326418,0.130431684624379,0.002887927141332,0.000035719592607,1.204254312945801,-0.133806342098045,-0.003500188001261,-0.000052480033830,5.456998232516877,-0.059281446280562,-0.001053923366184,-0.000009064520493,9.679024663983883,-0.059432450311767,-0.000939414676102,-0.000005981971591,1.374136028269964,0.717831625073465,0.016874297720774,0.000211146452056,5.420371655093894,-0.031561409653908,-0.000982182588314,-0.000014415363052,10.282845183517146,-0.062145499632104,-0.001922903632935,-0.000029192337098,1.468810367957300,0.216754929904695,0.005349705028315,0.000060570626195,5.164475366782122,-0.106253649269309,-0.002811881397401,-0.000041143510516,9.861941186965591,-0.142616523048594,-0.003751990561584,-0.000054127545374,1.603749204833384,1.029505577182916,0.029028927060275,0.000442509325908,5.156833725876186,-0.054079865799443,-0.001194003661744,-0.000015876869726,9.683807983656990,-0.087074293573157,-0.002181492192795,-0.000029868679494,1.302001989823641,-0.354515937462822,-0.007059102438634,-0.000076242020375,5.196879197505686,-0.123610005981085,-0.003066737728181,-0.000041299010041,10.472725254495559,-0.228540405497546,-0.005888631041091,-0.000082270831838,1.399111578166811,0.786262897743050,0.016993117031293,0.000212236618475,5.217070345151768,-0.056851127595001,-0.001385739168295,-0.000018182842983,10.629239894935314,-0.071470043290915,-0.001693995429601,-0.000022098909772,1.148592276271990,0.889805659036156,0.018218052547982,0.000214357461726,5.109384620366916,0.023213416144914,0.000476804905982,0.000005209188401,10.231827152497129,0.004114614592922,0.000181497104261,0.000001305604393,0.829838356566345,-0.254194975886158,-0.006141942444860,-0.000087549088135,5.271501665962725,-0.051076413588753,-0.001053959591041,-0.000011897814880,10.270493083326286,-0.069123625049046,-0.001766501045228,-0.000023295089967,1.380675740877519,-0.086721388444798,-0.004080022115790,-0.000083844678843,5.514891639422465,0.020164852832809,0.000647005172487,0.000010718582882,10.414081924917591,0.022491335895962,0.000412600321115,0.000005484861406,1.369774123345186,0.218930459687684,0.006361509932420,0.000099523918169,5.342072180595771,0.038853118125282,0.000939765256976,0.000012856041139,10.086662331917138,0.070926040698408,0.001749126564115,0.000024337512299,1.109508515430504,0.335889941994567,0.004010541509540,0.000012645817545,5.558220611691564,0.039989208446826,0.000874617449274,0.000011664383100,10.287020850540250,0.033567459573387,0.000703459724258,0.000008944074926,0.825337992627176,-0.750741809593498,-0.019797709367243,-0.000288044752042,4.947154535117575,-0.041807607516181,-0.000952883966158,-0.000012808857304,9.595206788009641,-0.101734571591627,-0.002133127200219,-0.000026208605423,0.927053795081885,-0.279938637448661,-0.006554388403416,-0.000085482576404,5.399257730540336,-0.001211419039588,-0.000116941790602,-0.000002063284255,10.280880397278931,-0.006550398279734,-0.000003638749354,0.000001219177000,0.523360394167864,-0.120198823194092,-0.002939727300665,-0.000036258482207,5.126275619704050,-0.024069096112945,-0.000581770607802,-0.000008497187914,10.468891057266822,0.023941678515107,0.000318244741110,0.000002452636374,0.090212411222607,-0.008078956072966,0.000136360127900,0.000005512562821,5.098435738176519,0.073413150022002,0.001745578729826,0.000023839403478,10.057096337254571,0.107944967143520,0.003106959581028,0.000046400461558,0.023702787963616,0.007973581841038,0.000127145455118,0.000000906029580,5.269356250050136,0.048470850000147,0.001809624260614,0.000031272635463,9.964616750013835,0.012345640316049,0.001458198791958,0.000030502508728,0.942319257664326,-0.256594205228150,-0.010180796463063,-0.000185812990312,5.329913127357640,0.042583102676232,0.001310992083204,0.000020511769028,10.183233651878885,0.066297298898999,0.001815859798768,0.000027210482862,0.533435166087811,-0.239002523539860,-0.006006986628472,-0.000082848046682,5.466148488715488,-0.009868140693638,-0.000125970524559,-0.000000735431036,10.773784198118161,0.060010799091473,0.001269792719229,0.000017388705671,0.091853899776948,-0.042824968977691,-0.000967431623198,-0.000012257696971,5.378719897206876,-0.043469011940602,-0.001434790318664,-0.000023488944242,9.905738770181811,-0.037937009448830,-0.001506859350742,-0.000027447998403,0.031532545616444,0.013415669451074,0.000269817896176,0.000003142015654
5.506445687020240,-0.019961003640353,-0.000889393429360,-0.000014186766091,10.527142047514291,-0.102557540803747,-0.002954055232053,-0.000043877893060,0.942853600410011,0.571459707035826,0.014857472953143,0.000204211688035,5.125836464050161,-0.012434892174009,-0.000801123669113,-0.000018400976901,9.932731829773367,-0.134527036177948,-0.004670376900346,-0.000085933716957,1.061266136965236,0.732348490953962,0.028818037363082,0.000579328650111,5.202235586996780,0.057750435995157,0.001414085498104,0.000017563245620,9.856064989596133,0.100155064943613,0.002227287799738,0.000025356981466,1.145893295135208,0.270391221436459,0.009609983460832,0.000197866885062,5.286054502323851,-0.059332836869740,-0.002738327987483,-0.000061059492464,10.433752115135983,-0.048720088342321,-0.003397330063368,-0.000084874669467,1.248271306176045,0.853517343187168,0.032961649343434,0.000667744805744,5.400373133902102,-0.058672631703991,-0.000957790749874,-0.000006449914776,9.702479234318963,-0.032233129258822,0.000068317934345,0.000014056050774,1.347128411970407,0.099448334948250,-0.006093606472843,-0.000244216633730,5.454592153650429,0.002118678804813,0.000210103296142,0.000008616912798,10.288392619410651,-0.023658148047335,-0.000533626391773,-0.000002125417509,1.449947251774603,-0.195357833422789,-0.009885189406655,-0.000240541925053,5.181782940183879,-0.073246889812527,-0.001683835453142,-0.000019918695678,9.953724261077944,-0.077384529793165,-0.001540173259092,-0.000012549679006,1.633408060896720,1.279129348923298,0.038261114167974,0.000625068620672,5.187800257672192,-0.073076082361518,-0.001923320336670,-0.000030508293247,9.645745246376565,-0.136027666570974,-0.003950917590638,-0.000064461522132,1.333079270269516,0.303006519637482,0.017344193300301,0.000407389550754,5.108349920732688,-0.178429010485318,-0.004938446264416,-0.000076696980853,10.431697166645927,-0.288500119313981,-0.007966284683083,-0.000121760916785,1.400393293204845,0.752536861567482,0.015730653547295,0.000187196021238,5.240947721973188,-0.105108228194066,-0.003066683803795,-0.000050042458838,10.426075111110872,-0.205046330926654,-0.006231606729029,-0.000107565961152,1.124618490633547,0.417456143146769,0.000829460234101,-0.000128387556003,5.112060096397907,0.063613501125508,0.001895989506482,0.000032349826514,10.339812941857669,0.093106094195438,0.003248742538725,0.000059563389023,0.826479745029734,-0.332136599079943,-0.009030914047055,-0.000144722995436,5.299460313380830,-0.010969470987812,0.000328340818835,0.000014284577847,10.353610151520000,0.000055954404328,0.000606585539987,0.000021626463298,1.391641644873346,0.036800820031921,0.000474190461277,0.000006052012975,5.551016262982273,0.000533844733334,-0.000117788333141,-0.000004624865018,10.269418665630187,-0.041563317066240,-0.001918313097372,-0.000040313531324,1.362314779087280,0.155469552073259,0.003929214957234,0.000050625814824,5.441056340318328,0.093267286616830,0.002818873448898,0.000048709915787,10.072622970448689,0.108917093531307,0.003120858353273,0.000050999056441,1.094649477627611,-0.041893004826852,-0.009995412526045,-0.000264659666804,5.490463271843489,-0.036285899107827,-0.001799325419771,-0.000039618745317,10.211856675776296,-0.072333955681129,-0.003021231142981,-0.000062575604675,0.855406164297122,0.008750823643426,0.008292707660982,0.000267346390208,4.990225518789805,0.023678411652646,0.001326005430598,0.000030634135620,9.715299921880504,0.011315545566439,0.001775617139502,0.000048126224764,0.925625579992717,-0.349999286223436,-0.009204602119702,-0.000138503455004,5.451089986810640,0.076028776235938,0.002565685945858,0.000049004971791,10.430516222882698,0.127620415558899,0.004616713850043,0.000088880083935,0.529973119203928,-0.041622883412709,-0.000028125615408,0.000021373872908,5.144063704787540,-0.042247787184541,-0.001228717342804,-0.000020909484076,10.392825202988272,-0.028986025985929,-0.001500814983301,-0.000032070640205,0.091809817483912,0.026745116509679,0.001425049702590,0.000030997033223,5.135614952581867,0.106646244820561,0.002894434429418,0.000045689710451,10.103041878438518,0.156216388582740,0.004774291382270,0.000078067309484,0.023523699427648,0.002074328001114,-0.000092842597213,-0.000003464065333,5.394752849327327,0.067798468720647,0.002425734710226,0.000042671081343,9.853581838896998,-0.033631833577148,-0.000104969330749,0.000000902323312,0.943220621875608,-0.175877438847468,-0.007164509357441,-0.000125806302340,5.302442953502544,-0.009952966793127,-0.000514737072560,-0.000014235953306,10.074031409386821,-0.028026172583920,-0.001435910706362,-0.000034543100370,0.526571091096786,-0.276567263465226,-0.007376733845739,-0.000109742374280,5.404260417313669,-0.118411650339971,-0.003895530137597,-0.000072457938440,10.559368855139542,-0.127316028583176,-0.005195186553157,-0.000105467522025,0.092514183460193,-0.006791891806260,0.000355438916017,0.000013787849902,5.348399175415084,-0.015628155852789,-0.000441714842095,-0.000004413573393,10.026564056154831,0.045111977984644,0.001339765451035,0.000026496325585,0.031615414135173,0.010365007454269,0.000157258703343,0.000000917191150
5.444264474993814,-0.043777653375493,-0.001858939466538,-0.000036329340806,10.571610525819009,-0.088386595755191,-0.002431404250854,-0.000032721164012,0.959320509717004,0.769761424450792,0.024026817208987,0.000427418320454,5.156916580685377,0.069534130335761,0.002645723437383,0.000060944515177,10.032630957975483,0.009851574254788,0.001359443847026,0.000052474684888,1.054727952032320,0.384163718331512,0.012567058161740,0.000181781928055,5.085935507442584,0.030268561885949,0.000396208147626,-0.000004378295705,9.954471908440590,0.161018877584671,0.004772060212889,0.000084093931941,1.133476905634689,-0.032122066835431,-0.004523193442263,-0.000147960515052,5.376220372015299,0.003642134656559,-0.000207798391321,-0.000004197519289,10.440437597542960,-0.002547819978036,-0.001517078057779,-0.000042558773495,1.271237241408678,1.070011457360743,0.043005745220092,0.000912444813526,5.361381005468631,-0.008682975852693,0.001258673885770,0.000045980306765,9.816454869911043,0.100313550750606,0.005668238100479,0.000143736130233,1.322794160524141,-0.458610316189815,-0.032155396011559,-0.000882185298464,5.438754290636659,-0.033297893332130,-0.001280497923793,-0.000025727661939,10.249901243417721,-0.081457788751294,-0.002952519171566,-0.000057725695889,1.452093826039510,-0.071750748386607,-0.004144169872241,-0.000100396371807,5.195690181919591,0.076867662150044,0.004790846475114,0.000131348593549,10.146459096410473,0.205733047079083,0.010465116161475,0.000265797281380,1.602144861084624,0.233541230299484,-0.010549064183518,-0.000569604072346,5.206836842275337,0.005302173373327,0.001350731688439,0.000044468808758,9.762275637021292,0.010016787853332,0.002099024702197,0.000073728631797,1.337978684936612,0.222214934635038,0.013503514091679,0.000312624059147,5.139801613831191,-0.181226824036234,-0.005098739389616,-0.000080835908172,10.385720997270917,-0.326387041093493,-0.009544328005287,-0.000158031518147,1.413249391141147,0.871241957094807,0.021223096985165,0.000321058353324,5.219873935690529,-0.201376367758077,-0.007075590167265,-0.000141619870090,10.261558850853014,-0.399092206466314,-0.014214078960470,-0.000289149317546,1.119482204834002,0.362861530500124,-0.001533652658357,-0.000183556303281,5.180577297315719,0.127097191506667,0.004491085831342,0.000091200303478,10.377396032536295,0.165973079965346,0.006247996149687,0.000127670735544,0.832270138220575,-0.205355523817634,-0.003145658117605,-0.000001153599895,5.324551414025946,-0.100381717687759,-0.003406148251552,-0.000070949370303,10.137019065374464,-0.223250708209699,-0.008546194075672,-0.000186193963645,1.374056199643252,-0.120705739617937,-0.006740220122760,-0.000168659450765,5.518766583444731,-0.010234167677128,-0.000585573158247,-0.000015748910438,10.303857217987309,-0.035129802335828,-0.001686201716159,-0.000035474849480,1.376151756081287,0.369542574108596,0.013952257340870,0.000295911938609,5.384661325028524,0.087338596755832,0.002637292737577,0.000045245346634,10.134394133034238,0.154314431313033,0.005006068256428,0.000094281472343,1.086053340730364,-0.213142534221890,-0.017959684769717,-0.000459083325974,5.488514289372607,-0.028032258946612,-0.001491847797911,-0.000033155449876,10.245267932907748,-0.046775668669948,-0.002036607157442,-0.000041116261517,0.878173649580858,0.418747968579470,0.027268416899211,0.000729465242661,4.985618918472219,0.097941626754908,0.004433757238976,0.000101750188214,9.867738911806249,0.182578466554379,0.008823385442435,0.000208488466227,0.927086380729026,-0.350347192758404,-0.009295769052828,-0.000141504091780,5.415318475571385,0.016584306577927,0.000102021526835,-0.000007232041356,10.367159187134829,0.035040206236428,0.000793008251440,0.000001739453447,0.529416452098211,-0.012941472055409,0.001306510828655,0.000053965273294,5.103518523980586,-0.106598948365963,-0.003884473182525,-0.000081370966725,10.323528974555989,-0.127337837551654,-0.005563908464990,-0.000124668131416,0.090130973086923,-0.004375625515111,-0.000016267545313,-0.000004126679579,5.247969460357776,0.198620157315298,0.006669373293500,0.000131580866591,10.131934070323267,0.243935527281517,0.008420022404146,0.000161306966185,0.023055644615974,-0.008860408950545,-0.000604434703144,-0.000015992710265,5.344366592961806,0.079335369942952,0.002960152359250,0.000055409808615,9.938006580120350,0.042178246699080,0.003031541790725,0.000072620567632,0.934331934837901,-0.342454063922805,-0.014974172277285,-0.000317228137542,5.315798443182106,0.040369973536452,0.001581589301968,0.000033688095825,10.151031696976707,0.066706087907270,0.002475199047975,0.000054615845826,0.522752687563457,-0.327267525090946,-0.009755844010163,-0.000168041733163,5.414942225509336,-0.089884691051195,-0.002712625746217,-0.000045473126897,10.596351269373443,-0.078576453048204,-0.003182430933495,-0.000059577871772,0.093189694929554,0.004258713836308,0.000867263119203,0.000026250913321,5.384464340518543,0.026426927022168,0.001290491956693,0.000035016093544,10.057085043991814,0.097495303282880,0.003507081492242,0.000075905140362,0.031161253764562,-0.001414849027182,-0.000390623816949,-0.000012463806240
5.453929147991174,0.021616948289745,0.001417877959477,0.000052893670240,10.637742410140303,0.036181261992748,0.003700812551685,0.000132816261753,0.942639894582021,0.288906454106439,-0.003701101853760,-0.000388458769532,5.230517701480252,0.242712560527240,0.011090457466733,0.000287375962401,10.170852902660762,0.285959976141919,0.014791373388472,0.000412151664343,1.043981741535733,-0.002794381632074,-0.010103393182472,-0.000490338356944,5.101112070977210,0.145032248290185,0.006022992163005,0.000146739844596,10.091778020293505,0.385089216096464,0.015631418241343,0.000374364406692,1.126473200777075,-0.258867653497908,-0.017834376139855,-0.000542956525376,5.419311349188931,0.113619514917164,0.005151034556064,0.000139376699655,10.530106752227246,0.172361878081435,0.006989692173259,0.000185260707981,1.274789416388155,0.851742077271227,0.030382889430662,0.000540198887417,5.395201052578446,0.093701305797479,0.006243979289045,0.000179407994759,9.909517949450484,0.266901251857621,0.013734128580124,0.000359163336879,1.317253561353878,-0.571408095919129,-0.038870794688374,-0.001082818262132,5.426137063153632,-0.000523858746043,0.000338333032888,0.000017806604717,10.311590929055441,0.006529733520743,0.001275528447578,0.000054763954448,1.452413222183161,-0.101093419505902,-0.005877984339711,-0.000152060245853,5.257264595268166,0.129644169529315,0.007412087654899,0.000202776623768,10.122798704121537,0.225381060660592,0.011620879189981,0.000299913423736,1.588765060816846,-0.068788336370615,-0.028137986401199,-0.001089232851184,5.244521386507661,0.177891810805313,0.009929895077305,0.000277004571738,9.926766443975723,0.314962664191384,0.017108102856754,0.000478704919737,1.311881206256297,-0.453968326873934,-0.026159173418158,-0.000863850023132,5.110462940464339,-0.292618367882638,-0.010674809601353,-0.000232694287612,10.284379017022733,-0.523564271361487,-0.019316592891217,-0.000422911762038,1.449043684465593,1.457422829436571,0.055157487359811,0.001322152899513,5.273908704261176,-0.127009443299227,-0.003551646190012,-0.000048726790908,10.295110713280515,-0.308826604824301,-0.009917921821583,-0.000175807448988,1.134666132897720,0.524167462881161,0.007620465762863,0.000083747150270,5.170211014340147,0.040655148028893,0.000214968934898,-0.000024264691136,10.279793897719125,-0.006835417222483,-0.002167893970083,-0.000097975887994,0.849688349782964,0.207126003503777,0.020782202810243,0.000704651428690,5.300684414552117,-0.133846449941173,-0.005072096642584,-0.000116277771198,10.127621849068923,-0.259592602021460,-0.010402314136167,-0.000237321880463,1.382953956528906,0.081513529319313,0.004973379935942,0.000176723053174,5.542888818904340,-0.032350598818596,-0.001848692184112,-0.000052548330714,10.260086822721407,-0.097883540985203,-0.005003232591569,-0.000128732260404,1.407379902549050,0.906917689257435,0.044334178789139,0.001183292049868,5.354351112777415,0.074834921734797,0.001971044496343,0.000026203402582,10.174370702199884,0.178524533709581,0.006006140152069,0.000118227206642,1.103204134073961,0.127522506783809,0.001779379077012,0.000122822106223,5.482807265674324,-0.059949169929705,-0.003035316974372,-0.000074234084355,10.205845712439373,-0.109015846050066,-0.005014584232119,-0.000120067348469,0.879976375336183,0.397413625352715,0.026065509111915,0.000694250248754,4.994220335761106,0.169639341327135,0.007906999987167,0.000194266889472,9.964182485351238,0.332315408700724,0.015995373803607,0.000398742883228,0.927891557354900,-0.330271751128375,-0.008216748182142,-0.000110624758721,5.348010689014271,-0.095316700566766,-0.005282753144219,-0.000150484550991,10.299853441808558,-0.115891847863244,-0.006483532836769,-0.000191924429227,0.530783845994471,0.051176401571728,0.005035350297161,0.000164094703720,5.102188602455651,-0.091103995619513,-0.003130092733494,-0.000061223148022,10.345048961961218,-0.092960564098181,-0.003912684362900,-0.000080761827978,0.089770749645658,-0.011390958326916,-0.000423927305254,-0.000016159512219,5.243986728784303,0.196203490197408,0.006555330480746,0.000128550211618,10.139049805107160,0.247156387138570,0.008568493379705,0.000165167726414,0.023241693588073,-0.003814029611227,-0.000311201191091,-0.000007333429797,5.333962785337494,-0.034048002038612,-0.002503454650761,-0.000089625077289,9.783657616076072,-0.196154959461755,-0.008329707460053,-0.000227868351353,0.915546659396870,-0.532415445207649,-0.025715976548445,-0.000630894167626,5.336772211021930,0.098866770015983,0.004381007225958,0.000107789053889,10.210061456482634,0.166273412410003,0.007226112826730,0.000180302159280,0.529791171768696,-0.162669085594178,-0.000243381568934,0.000112172427111,5.446436957573145,-0.024624724592083,0.000420119947917,0.000037702116148,10.643861059046774,0.016659591184992,0.001402749633042,0.000062383513426,0.093488591931229,0.004839042150545,0.000902496416866,0.000027294780541,5.387957412791127,0.096863025608336,0.004713525074968,0.000126334450309,10.154971792321348,0.245666648179052,0.010605380785837,0.000264319474817,0.031046159443737,-0.005175914786997,-0.000610603559911,-0.000018987404576
5.466374828938558,-0.030104345079868,-0.001378018302825,-0.000030783514228,10.555862584380273,-0.106172359926004,-0.003913721759082,-0.000094978659572,0.927633701255785,0.023217095370173,-0.022691166197915,-0.001050273840083,5.228650081472637,0.279834411145725,0.013196158742230,0.000352444806293,10.220490716446779,0.376814064428411,0.019822068373725,0.000565905008799,1.040510699287988,-0.087156526117125,-0.016318014813265,-0.000709808619710,5.177660874392362,0.244888431345622,0.011442339234180,0.000310577222033,10.101450853199308,0.461613044435195,0.019856925884700,0.000502943217658,1.126751262183611,-0.246437410084961,-0.017008385528713,-0.000515113308886,5.421534838717260,0.046640397394104,0.001595092484967,0.000034017606235,10.444782004387315,0.017490798434058,-0.001242888070015,-0.000059895140367,1.260864667355245,0.529019992322796,0.007276342140243,-0.000265661323150,5.422487444187385,0.269919450662988,0.016164805826935,0.000485117546556,10.063131616047693,0.589633092054939,0.031693780631617,0.000909861824653,1.302775003617364,-0.846582778898881,-0.059297028250862,-0.001806890020052,5.419883543613059,-0.024883050541553,-0.001067941338020,-0.000026240457902,10.296277646852539,-0.033329043534199,-0.001006940726307,-0.000016445088160,1.456367348276692,-0.001293110852914,0.001345835474203,0.000101391517372,5.254608917607359,0.250245653580377,0.014624323277750,0.000432911920415,10.239745119546797,0.480577845360832,0.026377170631851,0.000763121900071,1.552681696777614,-0.770129771961193,-0.079398448124888,-0.002894419917930,5.235078599703400,0.181940219640356,0.009679125032075,0.000259866736016,9.977438282785885,0.361480718951340,0.018921618188858,0.000519424079575,1.355822511975311,0.347690256460482,0.032200471137985,0.001188726983068,5.098637028751112,-0.230544661288356,-0.006659182277970,-0.000099096363916,10.331341643798741,-0.387600056347942,-0.010999777322141,-0.000153409956398,1.410454105973566,0.521835475812623,-0.012380955666641,-0.001045148065076,5.294658425135914,-0.106468024533869,-0.002214614210585,-0.000003780462609,10.271084469729072,-0.311923809043599,-0.009709805347675,-0.000162257061849,1.110341172895918,0.025474405404489,-0.028230444068886,-0.001170661150804,5.200386334612648,0.127070534936489,0.004992303372271,0.000121478395902,10.337305332061193,0.133125705865532,0.005541812469403,0.000136832847087,0.850968184690500,0.157439962313854,0.017116279353106,0.000574939404410,5.333270398987395,-0.036128543725734,0.000039488460750,0.000034037054858,10.203289920194152,-0.098549734289895,-0.001947148146884,0.000012135012518,1.414587757177739,0.528390893421815,0.037022789997420,0.001296357352556,5.587266183048588,0.039662766131162,0.002306950137232,0.000077069472251,10.293122487313372,-0.008424321107613,0.000204731606504,0.000034296725576,1.414297957481987,0.817570523259213,0.038114903846607,0.000966842403714,5.325893559010327,0.111860576650535,0.004092399670151,0.000091882890679,10.259325046359463,0.314740055397011,0.013468911658196,0.000345022278544,1.104685717520587,0.093388254235157,-0.000816638479207,0.000029834236799,5.474635127006096,-0.037303959596716,-0.001699222031825,-0.000032011304047,10.237397940969748,-0.047832147431326,-0.001571986715208,-0.000013708675002,0.874205929020782,0.219579713379473,0.013172322254414,0.000241835188634,5.015746703761580,0.192634011990522,0.009099383524561,0.000229223864664,9.968975803718498,0.348284070119165,0.016792554750325,0.000421312730303,0.932767715341996,-0.197027829870830,0.001477057752388,0.000230262048048,5.283711695297916,-0.162894611682693,-0.008915978181571,-0.000259748084463,10.307970703330369,-0.151163119560964,-0.008413564030908,-0.000250119446197,0.522784549570861,-0.084249416272824,-0.004679992872043,-0.000175404364886,5.116310514899059,-0.051827150999947,-0.000976124313868,0.000004172677953,10.368108114093840,-0.033645337152215,-0.000654010612695,0.000018286420683,0.092701452858128,0.038828631244899,0.003199157067069,0.000110751773909,5.243402697078970,0.170980256660724,0.005154871527413,0.000085788110691,10.115713442059842,0.194559120902195,0.005687314869734,0.000077696660339,0.023268511346583,-0.002342570010847,-0.000203193178619,-0.000003522679964,5.355926693391773,-0.073166839716590,-0.004764356240225,-0.000160112747835,9.709669112943695,-0.321738818709735,-0.015279061214789,-0.000440307912879,0.917352941481246,-0.380554286147872,-0.014585312462362,-0.000238614178979,5.310394979671513,0.069879243318482,0.002788688103691,0.000059188022604,10.218892799860205,0.154350038174187,0.006516425155565,0.000157784547125,0.534208752037637,-0.055961757077351,0.007491210615363,0.000383519287559,5.439984998602351,-0.059272347810629,-0.001491199446883,-0.000020475095205,10.613493289814366,-0.047219202163766,-0.002103043337964,-0.000044176509243,0.092719136858227,-0.007223775725479,0.000037530975080,-0.000002908541781,5.389164072367509,0.010009852126542,-0.000113118555801,-0.000021031876399,10.057853525181194,0.055200488460752,0.000177091147853,-0.000052320590242,0.032077772348829,0.015053665795865,0.000861884193511,0.000032790172169
5.379591958605895,-0.196584927928006,-0.011599287528220,-0.000379539094101,10.516465023067127,-0.286376703854796,-0.015067742694660,-0.000476639322727,0.921957912392466,-0.027878981464255,-0.026944845756453,-0.001218670479189,5.194265812140507,0.299216240522745,0.014967473999509,0.000424856635556,10.283305661366999,0.499655104428490,0.028092591650375,0.000863937623527,1.000731766355110,-0.720517348308763,-0.074030039225516,-0.003086291786060,5.209392180917020,0.374678700545763,0.019319158813358,0.000576744267205,10.191207662837087,0.684686780569036,0.033392503667525,0.000960749129164,1.141121328564162,-0.037898105675068,0.001578484499986,0.000244468446332,5.381577511096919,-0.142623778432016,-0.010264704777178,-0.000375040700889,10.325886185576826,-0.309399056642898,-0.021619681285650,-0.000761126745322,1.267865016445986,0.641885850965687,0.017913891669147,0.000179490535861,5.429818678965972,0.382991007289587,0.023784872825799,0.000759004479475,10.153176420773947,0.812993109817219,0.046296837985305,0.001427041795334,1.262927529805191,-1.401443612096506,-0.110067913621906,-0.003901373737866,5.402799808121648,-0.076610601708252,-0.004834401070977,-0.000167529040573,10.286447028415385,-0.097275090169312,-0.005822201596131,-0.000199811660887,1.490451426669736,0.549734087863470,0.050991677992323,0.002138024073336,5.309431813433696,0.225402367697678,0.012241922473213,0.000333908036572,10.163823023816059,0.315726835598740,0.015174240895891,0.000357170691784,1.580664482226981,-0.173261630544269,-0.024878611868854,-0.000646973690334,5.244304847972016,0.312313603136874,0.017910236917750,0.000544709935048,10.091889576574882,0.632171231530818,0.035777225604310,0.001099099651845,1.358823449846482,0.265529748451776,0.024108946946775,0.000846789767349,5.098480307338181,-0.167464975197496,-0.002571470211996,0.000044578045290,10.380996571418217,-0.252066149906286,-0.002411361063548,0.000145204319880,1.409339571346475,0.385601299736838,-0.024945647919620,-0.001565117338753,5.260076029423920,-0.254679812043788,-0.011583851608855,-0.000328718887406,10.178469454836312,-0.567165703897504,-0.025726892669586,-0.000715765309342,1.119443987833858,0.222356284389475,-0.009862054819833,-0.000407571928583,5.142388016499201,0.030186848720226,-0.001184737959991,-0.000094419992236,10.336050070903953,0.056037563526850,0.000367707139007,-0.000048751254032,0.876183677728601,0.548744290224209,0.052539034094708,0.002030390287927,5.366570382770326,-0.072401844348745,-0.002416735562054,-0.000053886974830,10.122317638847248,-0.255432324663210,-0.011767996794747,-0.000327042912420,1.424073060933490,0.632614580255890,0.046712909052120,0.001697863606427,5.503187202712541,-0.122004386316389,-0.008280295082637,-0.000297055837133,10.244734260154740,-0.196079336889226,-0.012259708085126,-0.000409114033896,1.439167323573114,1.174054209590070,0.067978704009088,0.002173904643060,5.390564202262659,0.251662446809650,0.012580619193962,0.000379293335034,10.306374688195405,0.479234413559671,0.023487482521656,0.000684437953388,1.118705849841779,0.254149904158466,0.013407357164486,0.000609227849223,5.523014540221062,0.166515185487752,0.011036571345878,0.000406473412957,10.358008467051109,0.290704593680917,0.019463640969227,0.000708683433522,0.872717139541778,0.099808885481543,0.001812570746822,-0.000231890931032,5.036008392240164,0.164237336362921,0.007240000659096,0.000163748848841,9.919322619975503,0.239533373956676,0.010029673118281,0.000188712651488,0.933531084428750,-0.134373206500287,0.007331043510498,0.000473262557086,5.312953698736418,-0.042256461070450,-0.001398586511514,-0.000001347951590,10.376670517686291,0.047648929600310,0.003911182181975,0.000172552645222,0.518909566879424,-0.155424079543723,-0.011202958608282,-0.000444735105221,5.155596730874793,0.114332458990636,0.009320289411256,0.000356847796382,10.469339922618751,0.247251124565541,0.016719943785676,0.000613133823215,0.092148832366583,0.018423574142318,0.001312522787892,0.000032639049981,5.235089850306535,0.127832480245402,0.002470767030743,-0.000006328660013,10.090347082875214,0.119334130394251,0.001041945198504,-0.000081193906303,0.023266903933584,-0.001612483044167,-0.000133834616596,-0.000000626757874,5.378087604310180,-0.074537412493462,-0.004689980117399,-0.000153656325734,9.665998642023025,-0.384040632574960,-0.018788401867316,-0.000553136925236,0.893634683930738,-0.686931061024771,-0.042150998663077,-0.001370384575816,5.324384599044125,0.026134463784162,0.000005826607465,-0.000037294704108,10.159852246989896,0.025701734686968,-0.001434745513874,-0.000114544509000,0.535421255054881,-0.014640354225815,0.011326508963282,0.000542164795541,5.392055596307745,-0.130869536708892,-0.005853279690921,-0.000168828583798,10.612892310228757,-0.097872173485865,-0.005266884078525,-0.000152892512859,0.093105923591475,0.001444886474308,0.000816754918355,0.000029050066068,5.400170405809872,0.116191102421519,0.006506595805525,0.000206302299961,10.143446472180656,0.264970282905806,0.013117296156752,0.000390268740142,0.032051083494382,0.010866556416434,0.000471875703744,0.000016589669297
5.357086311659219,-0.356926769330312,-0.022929053304709,-0.000817429926167,10.413550149201040,-0.594318735109232,-0.036510041466089,-0.001299595473749,0.931371128856005,0.155626289957500,-0.005701093456943,-0.000203852852756,5.169578380337668,0.236605138189253,0.010443071431745,0.000247129526308,10.280429971561064,0.439057829898281,0.023531309943113,0.000680988836995,1.005921530977938,-0.528734657381694,-0.051905713344525,-0.002030617012994,5.153665315380644,0.197303097372270,0.007133369010928,0.000112890697816,10.140823757283824,0.456205651092754,0.017603259814172,0.000357961151303,1.136860803471159,-0.047702448359361,0.001098793843940,0.000230787012362,5.424519749528597,-0.115449531254150,-0.007847769044208,-0.000269061832469,10.271273684663141,-0.381305544231721,-0.025500791663303,-0.000883987847125,1.240397554282447,0.161256120465169,-0.036047756909050,-0.002371782333992,5.444086747936060,0.460016097811486,0.028762041018726,0.000940517851863,10.213454959424935,0.958772189243203,0.055795524733362,0.001776187205482,1.267380220474933,-1.165056138302751,-0.083594547279039,-0.002648623226237,5.373719699835132,-0.119135808721132,-0.006985597911009,-0.000231253356174,10.281682556285380,-0.123893593932794,-0.006588097544500,-0.000203417768297,1.463410215566267,0.090762341806929,-0.000577514143091,-0.000302733276791,5.295336586001083,0.171750740676052,0.008974081871579,0.000219513019110,10.140680815813532,0.235173240411799,0.010253862587066,0.000184600719953,1.560422420043147,-0.418597350976851,-0.052366838877997,-0.001946170642836,5.270686854851594,0.447406818485713,0.027118135634252,0.000892952339453,10.176560998501758,0.871974380031264,0.052080632973637,0.001715267750789,1.371777944118276,0.363680999816895,0.034537160571480,0.001331456782675,5.133718701656955,-0.164831629825890,-0.002192635814227,0.000064538607481,10.322756617450917,-0.354840226088922,-0.008953835900370,-0.000091982066568,1.398198955520025,0.185153320410085,-0.047304938194964,-0.002620109114454,5.225135027252503,-0.235065321711611,-0.010445508072249,-0.000291382070949,10.241778726423901,-0.424736954769626,-0.016490238361275,-0.000376945808969,1.142669505986742,0.507253189305529,0.021843208214430,0.001089564088719,5.142965146654653,-0.000796186094467,-0.003070125218970,-0.000160063607886,10.306233488662569,-0.021671203621461,-0.004531295885090,-0.000224763627467,0.860128939931792,0.245239424928607,0.018274034010595,0.000406193197577,5.385306097528172,-0.039678550096295,0.000425847316869,0.000068742295807,10.109695989090209,-0.243957730292440,-0.010028330972742,-0.000238305416771,1.403418421253476,0.238660845916259,0.001964569716575,-0.000426654920386,5.421620451482341,-0.211933573146325,-0.013734568441210,-0.000484086113609,10.253326340481868,-0.223310950376870,-0.013074351280066,-0.000409848626681,1.398021985111683,0.378296628400618,-0.012404129066648,-0.001558398161875,5.391057680300649,0.083606994469470,0.000497845094101,-0.000092234132828,10.179815929976165,0.106847415577041,-0.002616381576100,-0.000321750094570,1.135506907377120,0.521674382938290,0.044746532616861,0.002110057777907,5.523356842016747,0.332866170169186,0.023061932775016,0.000877157654644,10.493582677917486,0.664844870518816,0.045744157018751,0.001722975251538,0.848033048464233,-0.319377189333163,-0.046501158538342,-0.002533973900651,5.091615782309782,0.239576555604827,0.012342432515373,0.000356746607833,9.903427593668500,0.253014679154060,0.011025251539238,0.000227822525913,0.932626951917126,-0.134997604071242,0.007135179548880,0.000462195853963,5.262936461627826,-0.148091843484630,-0.008777959879974,-0.000285079138369,10.364345578624556,-0.051074389537714,-0.003148153088696,-0.000102340660584,0.533156896389960,0.085369458305701,0.016080899215338,0.000850150866669,5.183876954786320,0.126964660708116,0.010109870612145,0.000385505202816,10.442108562582101,0.198006505382729,0.013358475604474,0.000485354971177,0.092596272470825,0.022707159455818,0.001806729886939,0.000056201154054,5.217859419809592,0.116070707823954,0.001699404577485,-0.000035031625385,10.109221892913423,0.146592946776070,0.002880632690100,-0.000011750549427,0.023394842865554,0.000446685356311,0.000099615554047,0.000010453997949,5.387717568302834,-0.022535130618773,-0.001485345010128,-0.000040829651371,9.697009996122365,-0.286843990385671,-0.012699377826099,-0.000335622321980,0.914838811131549,-0.290111872743290,0.002549897100965,0.000750921390890,5.262745893321842,-0.184275081370214,-0.014430263180101,-0.000586122246863,10.077740710293476,-0.274480376878954,-0.022066189339813,-0.000899511994778,0.528125142904995,-0.091272523387729,0.002989057408539,0.000151176823357,5.340383595826899,-0.301993307173971,-0.017611908467835,-0.000616364910403,10.545434236345244,-0.341632126695831,-0.022083544502667,-0.000794224800339,0.095432496586684,0.038916006899190,0.005061793452655,0.000230399309702,5.425071117256270,0.248555579176745,0.015662374404527,0.000555754651321,10.219674627973154,0.495146733438171,0.028942960438990,0.000992853901788,0.032556311084749,0.015487314281389,0.000982121548115,0.000040574213197
5.350252001084329,-0.477298099178959,-0.032171000512724,-0.001207142516146,10.322746021955917,-0.866468256042683,-0.057044694286744,-0.002158841830551,0.928370295927482,0.122791942163367,-0.009537422564645,-0.000398936386915,5.185926853196035,0.304305629373087,0.015144020275776,0.000433072192862,10.318131408249217,0.555784702231237,0.031690330122939,0.001005380359963,1.021759128059415,-0.260029053082675,-0.013821449911318,0.000026433395277,5.207265048522004,0.377865947622796,0.021459509046827,0.000730515079100,10.194823252181319,0.689841187259394,0.036351561375657,0.001171111714637,1.115761286255487,-0.361112669779307,-0.044823443776796,-0.002271509166079,5.411028280190919,-0.193080008256077,-0.013567606247730,-0.000504494019848,10.227121799893222,-0.521333913850808,-0.035814762634950,-0.001308796485961,1.232316626929714,0.052001562013020,-0.050865763920440,-0.003160934185693,5.429585784825888,0.388433312143263,0.022208356688347,0.000636488371786,10.208384786374772,0.870759305462917,0.047459146780396,0.001383572780206,1.290378841591076,-0.683403036812645,-0.014422930564900,0.001100959813106,5.360737095406344,-0.168295126065552,-0.009975965250332,-0.000337445668354,10.256044993681742,-0.204715122442250,-0.011605946204036,-0.000385122118791,1.439430570821333,-0.227572286215408,-0.045135288922746,-0.002701879612025,5.285842927366350,0.218917863754420,0.013175089830276,0.000411271577333,10.191534688203751,0.380764075016300,0.022036387741958,0.000698474615066,1.544404583347734,-0.601535796916089,-0.079165172765501,-0.003404601804036,5.289620708741103,0.568304348256418,0.036385866568286,0.001283841203257,10.252579633256218,1.102069057681971,0.069563404198824,0.002449573118469,1.378624422219699,0.370356748233741,0.034346154113786,0.001305319315101,5.155377593987450,0.054285291916695,0.015470628424395,0.000831818787052,10.440946305078901,0.076385323349075,0.025096478882117,0.001371886212993,1.379813990058600,-0.156441759110030,-0.097896789163394,-0.005384436950158,5.180144623151837,-0.296048149306741,-0.014791229393917,-0.000467156333749,10.254286509377323,-0.425371636845863,-0.016331090572471,-0.000364356376368,1.139539489488956,0.401042333141233,0.006978208466431,0.000288077069068,5.162331456942399,-0.047150603577023,-0.006841245516734,-0.000324051235811,10.242413296859594,-0.199673120174896,-0.018142133427895,-0.000799228079459,0.867057035021083,0.321418448622614,0.029461954047815,0.001016762134816,5.370545984189532,-0.103786241820928,-0.005279677231231,-0.000192607121361,10.087761199002964,-0.337473950175921,-0.018358399594894,-0.000619964107315,1.430179534713999,0.581393055278719,0.051221508863023,0.002243713028026,5.430782696586919,-0.294474954420799,-0.019553678534654,-0.000711519229539,10.156303752128832,-0.453357125064342,-0.029859150153099,-0.001089294788527,1.363731938478206,-0.123028239941536,-0.073953383462205,-0.004813218577230,5.401697933194739,0.028201155794453,-0.004676443819555,-0.000333783943566,10.131139337861416,-0.049310105168786,-0.015697169939708,-0.000902822484294,1.173022215874656,0.973220228951089,0.109705639605604,0.005630080946088,5.494647993745383,0.198700901427594,0.012808305315077,0.000444877327521,10.449939432100415,0.464509863421634,0.030447971352459,0.001078320740670,0.844067440606232,-0.308574633492246,-0.044220473434929,-0.002399906401430,5.137949417718574,0.458247310916338,0.029165406664907,0.001068376771211,10.001353958994002,0.614863003138304,0.038731053305068,0.001397220709191,0.929005200876821,-0.208781385274579,-0.004734846958868,-0.000198325364267,5.191233923592199,-0.347489372083589,-0.023951108631830,-0.000923359834250,10.322978340053174,-0.275043337736895,-0.020375932323036,-0.000830924250439,0.539787337028011,0.180210776674935,0.029915254600894,0.001603093020193,5.188409680631172,0.157861106905771,0.012470790034846,0.000484827333183,10.462153008245201,0.259314338241355,0.018006112635383,0.000680269077728,0.093818236251246,0.035497706693235,0.003609587968452,0.000153425535071,5.224393264410872,0.217306597193371,0.009490784451091,0.000294288742008,10.178821533003823,0.369417231262503,0.019748527904034,0.000695583326127,0.023381723254661,-0.000393635689224,-0.000038068816565,0.000002755324605,5.418514832800892,0.072355879567197,0.006138133869682,0.000290468496823,9.713040347990027,-0.178720850461229,-0.003824932310223,0.000054202961012,0.893165514934991,-0.559322153008253,-0.036232838054776,-0.001357211642628,5.267496979772588,-0.077432473404649,-0.006203517307499,-0.000238227494001,10.144506758173986,-0.048225285828933,-0.004884070078479,-0.000177619670350,0.527851898049018,-0.096684728186601,0.001818458993686,0.000082579528874,5.342980736762948,-0.368325582515561,-0.022747624136843,-0.000833805471977,10.484762650015226,-0.512736517158618,-0.035053000826351,-0.001338339467059,0.097023755294852,0.056884523641567,0.007631069993343,0.000369400497708,5.433352925542543,0.213896087306481,0.012955074544107,0.000440487825153,10.189661048416957,0.394331099470130,0.021304698508959,0.000672194292329,0.032558970625681,0.013788546102562,0.000747435812980,0.000027987936955
5.316059490194915,-0.544790440729662,-0.037472252620491,-0.001442180444262,10.312479354996571,-0.912770692617302,-0.060586014823374,-0.002312188446514,0.920076079015908,0.009763765165775,-0.029160797837522,-0.001585430504774,5.191126932962495,0.175704227025874,0.004693927352261,-0.000038803790802,10.227407607595122,0.226427250569942,0.005091786785304,-0.000194495809771,0.999771448402321,-0.472648535152189,-0.050432787016519,-0.002184709709155,5.260435317949205,0.471303541121483,0.028838861127886,0.001059356966580,10.186162812272411,0.705147929764307,0.037419597966315,0.001213811569590,1.118577849303958,-0.287401990032906,-0.031749068447177,-0.001476240077640,5.443139096502766,0.021402911743409,0.005232020525710,0.000385241000731,10.312236604266806,-0.150104726235940,-0.003655540950902,0.000204076770303,1.216235559657825,-0.197764091610432,-0.097384982658692,-0.006017966092852,5.408788722493699,0.473753775475428,0.029185287723258,0.000952157651402,10.317626953989791,1.176224659439114,0.072180132447819,0.002500769099245,1.297452148092674,-0.542589932284495,0.009042698897220,0.002508188469144,5.374169494193342,-0.136642416722062,-0.007635022893450,-0.000237837292985,10.253027538319271,-0.188755107429342,-0.010618410035832,-0.000349467447561,1.443569307413519,-0.151886713963924,-0.031879339908896,-0.001897383857871,5.261670654644563,0.219167238871804,0.013409004898525,0.000427020813168,10.238064100153482,0.491897036426501,0.031265159141103,0.001122380766595,1.538869694651635,-0.608184177971215,-0.080936819917063,-0.003518814186149,5.285528686785099,0.469751773774898,0.027841617968944,0.000882115341435,10.211925110730395,0.907418994928930,0.052992786475589,0.001677611238020,1.384842903862729,0.426120979513785,0.045701417733307,0.002013998315861,5.202579597007219,-0.003261913083437,0.009378779906937,0.000517544290068,10.333060132126004,-0.248081048154407,-0.003169526400659,0.000036413250678,1.396502534133275,0.104657438000325,-0.049433192861524,-0.002408160505997,5.162292286296116,-0.299626252918220,-0.014468889452148,-0.000435256136951,10.267545521677162,-0.378594378278315,-0.011663261975921,-0.000127806685310,1.127157327344029,0.192760039966538,-0.030156892727317,-0.001973312295887,5.133849495691356,-0.080556707483097,-0.009664790256580,-0.000455596710283,10.262583176693585,-0.163382764215271,-0.015451871044804,-0.000684189549810,0.876769310887164,0.402186157284596,0.043797742186177,0.001888297708920,5.385007868770693,-0.036267909368685,0.000022954362735,0.000042194887648,10.107672443899165,-0.237715730794514,-0.010507785460369,-0.000271993519551,1.445425298794519,0.685603800396272,0.069021903355186,0.003315605131272,5.385414215154322,-0.336236372595925,-0.023176086782855,-0.000883054519600,10.188337708666607,-0.399864062785795,-0.025715409912721,-0.000909021132286,1.369994158941064,-0.027282956225819,-0.059267045326275,-0.003929144894393,5.403127149670867,0.041937812318381,-0.002270107570113,-0.000187832965907,10.132260645993489,-0.029138675555136,-0.012158972150779,-0.000688021646261,1.145563124802297,0.509302376175483,0.026335350103145,0.000550107153947,5.454461729346312,0.061114746862907,0.000615644631105,-0.000136459688335,10.431544305143515,0.314972910956745,0.016746862488548,0.000414023335892,0.869975957324286,0.066209936791281,0.023451647724490,0.001724588860589,5.110708271576760,0.255873344712266,0.011954066394237,0.000267808866821,9.918283205573852,0.255179719402927,0.008428144437221,-0.000005559593182,0.930860427639531,-0.126682911127454,0.011846303857766,0.000836068486526,5.173201817509919,-0.396714021218607,-0.028169246531944,-0.001120488140713,10.310180338023272,-0.332621851176798,-0.025401429365040,-0.001068062784228,0.550355066550321,0.293643507338051,0.050161133305327,0.002835446043021,5.170131309631123,0.062570474338784,0.004516667742897,0.000118735252003,10.430200656372156,0.110254472564885,0.005561337125240,0.000107446433192,0.094423766882009,0.039993345485149,0.004480436383723,0.000207281069545,5.236015596558016,0.250767918936665,0.012268918760549,0.000421754204086,10.190614167169024,0.411463135568490,0.023252414081563,0.000856569157802,0.024058256224994,0.008058042497111,0.001470504074514,0.000094676743251,5.416344304126734,0.095579035106262,0.008330511260899,0.000398245272955,9.730601352870220,-0.113206621530346,0.001916720494969,0.000326216622484,0.880512945399384,-0.653949449537533,-0.053369517581466,-0.002405555138103,5.291399762564057,0.060303412085791,0.005411500635800,0.000299401035517,10.199160758909770,0.179621741190488,0.014234909154568,0.000705114384401,0.522782729413899,-0.159746809115889,-0.010106966864666,-0.000651715372623,5.299631719680035,-0.396843335898577,-0.024885899420586,-0.000926766011145,10.522775850598693,-0.421931150387416,-0.027569731374001,-0.000995805865700,0.096781006955534,0.046369956506683,0.005735543042609,0.000253798761919,5.369967950307034,0.054106980215063,-0.000177794141915,-0.000159183054306,10.189873540409542,0.286775223502887,0.012193100982268,0.000249959788460,0.032093485133121,0.006710883403764,-0.000503682010390,-0.000047936345233
5.351383194922656,-0.397694967991527,-0.023795617620410,-0.000748624623756,10.331892450100842,-0.740924176348797,-0.044326844857213,-0.001480312627562,0.912088953795912,-0.097851599065029,-0.054160965895749,-0.003289109865138,5.218476640807832,0.323341955585622,0.018370564379337,0.000652631115771,10.284052189301301,0.472953584335346,0.027770662443235,0.000947988368065,0.992917714261635,-0.517269513818810,-0.062159374666095,-0.002998197281663,5.217166119086817,0.238489250044175,0.006185543661165,-0.000117814408159,10.124555073353681,0.364736519100033,0.004229525022150,-0.000512814986077,1.143650504017190,0.068494739495886,0.051321797505160,0.004193724507432,5.394142669458686,-0.005765238757308,0.003868169520804,0.000347621874947,10.373354666910840,0.015737747811882,0.012223629262407,0.001022857849690,1.201310448604394,-0.358585581010164,-0.133880189114793,-0.008493839440059,5.422856953063778,0.603864071866793,0.040810981042333,0.001526780404830,10.399237392236815,1.449463378135359,0.096411658971182,0.003694945945999,1.302299626270453,-0.448602353132619,0.027737285530432,0.003747020217237,5.360887303946759,-0.134904853515822,-0.007077883858439,-0.000198606994714,10.271393014783325,-0.128903729083784,-0.004815797787592,-0.000048094334451,1.437618588419837,-0.208435749265342,-0.044766893275095,-0.002772961354221,5.258300015684234,0.271482865027415,0.018800604174257,0.000714826307407,10.285628079019402,0.648084377806102,0.046090870400742,0.001882768642030,1.527207668153727,-0.689870933201860,-0.100618680675267,-0.004867056521119,5.249344723954987,0.313964606259696,0.013349938839983,0.000147223970298,10.189290680979642,0.724181163289596,0.035655566405332,0.000790584561854,1.393326161731489,0.496728251453438,0.063536344305267,0.003245851921852,5.185003078704619,-0.170270328387438,-0.006570775857095,-0.000302337476339,10.251045648947418,-0.581988232294678,-0.034363792256638,-0.001549164749639,1.403904509773331,0.211652785594481,-0.022329598629323,-0.000533063679046,5.152838836213644,-0.443535279737969,-0.027349816070011,-0.001072099790086,10.177830878716104,-0.710912535952678,-0.041100134552803,-0.001577482290429,1.115297245263816,0.056919061119542,-0.057552466412008,-0.003795148806157,5.069628130749471,-0.282634443420814,-0.027763223000482,-0.001353261159745,10.232498982949826,-0.366325227871089,-0.033866951710513,-0.001603322206830,0.875228633710122,0.353170790494836,0.034242503362733,0.001258402828205,5.400766109481696,0.072086076966567,0.011185157474367,0.000639423970249,10.145910498196725,-0.051673596634076,0.008228608213314,0.000719634874734,1.432559540044138,0.437636353960245,0.011644380143661,-0.000594791187561,5.334842994088973,-0.459378555150077,-0.034466861968382,-0.001448869900872,10.176155854634684,-0.497932477327940,-0.034912783985866,-0.001374977746949,1.367541526546883,-0.038588400235205,-0.060305256998973,-0.003979596469601,5.441292621351935,0.307199058487935,0.023659496370218,0.001162583838311,10.237668269198277,0.437560385879465,0.032631390595112,0.001623523019529,1.118689336405666,0.100632031115535,-0.069124360282829,-0.005962372039878,5.488924252484792,0.070689625125256,0.000724872824238,-0.000152122411312,10.385701283469025,0.179086507703094,0.003885034167176,-0.000245314679432,0.884055860009501,0.228194780148424,0.060049484997495,0.004203812377298,5.107232303890341,0.252360560009282,0.012221366862003,0.000298742579605,9.927129216287543,0.273726357924478,0.010906460619313,0.000142554941455,0.915081897139489,-0.297423532462105,-0.026938083129189,-0.001800926462004,5.193713131564300,-0.317061177833380,-0.020790369756661,-0.000746940043630,10.318040342628491,-0.252290870296933,-0.017753133063649,-0.000675347459809,0.544717716323347,0.190050516737936,0.026748744948027,0.001244656418181,5.182506150246906,0.055610202526610,0.003754854748871,0.000077452588646,10.406900810954888,0.035579361374610,-0.001172440431093,-0.000227918343520,0.095478533180048,0.048071616064965,0.006319375653777,0.000332109615122,5.195360084909877,0.150719397506696,0.003342795244844,-0.000020356983840,10.201331627809219,0.372296980205296,0.019526775413812,0.000666010368565,0.024099531492673,0.007746910419270,0.001412615227236,0.000090841705056,5.448970641209659,0.245881766115743,0.021863012121977,0.001070801387083,9.775553231642599,0.107363076835560,0.021725395626005,0.001309188322259,0.880840382942114,-0.590067313281122,-0.040537239175094,-0.001549045992502,5.282892965729975,0.015149911235618,0.001439713924080,0.000104668960215,10.186227661389314,0.111348997526839,0.008223641050286,0.000410174192879,0.514231072212219,-0.238168672891848,-0.027455760490415,-0.001824357166328,5.292758224764875,-0.508162307634935,-0.035165735739758,-0.001444592746837,10.450871948423142,-0.680954617750879,-0.051018127230252,-0.002165875115868,0.095024439142104,0.022234502049153,0.000538604545976,-0.000095456719625,5.382543814705806,0.111879603743551,0.005073275148059,0.000103496322626,10.210200569370754,0.370681754173021,0.019818681027739,0.000631384096189,0.031966712737340,0.004235784024278,-0.001081116596286,-0.000087289333813
5.319478472027458,-0.645982701140114,-0.048799970970589,-0.002116089520326,10.215043758192463,-1.227830009067210,-0.092492408970129,-0.004091046906901,0.911536612212241,-0.067721217465968,-0.041738964526682,-0.002315663298874,5.199305958852865,0.236293652916478,0.009907069787089,0.000198516699613,10.272214467405622,0.372035891342358,0.017862701871697,0.000413810457596,0.984937187048855,-0.541272846608476,-0.067616602353853,-0.003391401075124,5.229841286480035,0.179162503421372,-0.001221109010132,-0.000566058815571,10.072453397679986,0.151043870984204,-0.018544305329861,-0.001798331193193,1.163607989591640,0.291681332298629,0.115861533042074,0.009032510042143,5.383779821562902,0.093488692197660,0.012976614098431,0.000816908035027,10.457188679023073,0.331231213535841,0.041521721989708,0.002550417388996,1.218889700768056,-0.150049613406734,-0.079238000918748,-0.004453990983208,5.430672638152410,0.556308819346419,0.033905812204974,0.001084101342359,10.382614618143931,1.321094532400635,0.080805079607990,0.002757355522159,1.327440756684876,-0.115506216578110,0.121367802892775,0.010737391111744,5.383820607675746,-0.084422593405623,-0.002147659043884,0.000067227759307,10.259262287009163,-0.133989048048263,-0.005008791371474,-0.000049435177943,1.434159568514225,-0.225667467274794,-0.049705481429261,-0.003141954207961,5.254006746603262,0.362221204484158,0.029034412300253,0.001307467763179,10.361524540848691,0.921356921401733,0.074267279033160,0.003445849241187,1.511926888773841,-0.804768205354546,-0.135978695290247,-0.007538288869753,5.242431024104349,0.225291012691135,0.003197631752171,-0.000445718831530,10.159629807108331,0.554638549486183,0.017051283869046,-0.000275316586622,1.414629902425592,0.688788194507492,0.119415928852839,0.007436598514502,5.195545218966005,-0.153896915579947,-0.004659443466589,-0.000188996442631,10.233431687351878,-0.609106789841122,-0.036332870753606,-0.001633399171574,1.399882905417238,0.145396009670896,-0.040401262673440,-0.001877090804674,5.135792667024088,-0.420165468628683,-0.025140916545202,-0.000956781847000,10.209015143296025,-0.578138657160403,-0.028615748653878,-0.000921146093596,1.123310812947159,0.130659203460262,-0.038289749096115,-0.002369325978635,5.062109104456769,-0.452455714066576,-0.044552876135549,-0.002260690027820,10.126363898994059,-0.788695154101376,-0.074753429791483,-0.003791092811994,0.867196070901117,0.246959328314081,0.007727321362129,-0.000683656268607,5.386709600724586,0.108114351644702,0.015515871844259,0.000896858783885,10.193836611159339,0.122290258352168,0.025953466122041,0.001696611104937,1.432001543996320,0.372024656879841,-0.008588398709842,-0.002124966514025,5.345541720629599,-0.464222182617000,-0.035093841244439,-0.001486575733455,10.142477167720687,-0.583386465811376,-0.043367063146673,-0.001831694210565,1.366129697572696,-0.044743556783516,-0.060977828518045,-0.004016964823167,5.465418717136505,0.451775956760212,0.037975942909548,0.001938022653195,10.297120056849444,0.691448310753354,0.057555322974789,0.002967780310842,1.123456420391803,0.124175829007092,-0.065195171999208,-0.005697091463872,5.473966073623909,-0.039078581205173,-0.010324355711595,-0.000756231854725,10.345497359920810,-0.014345085616232,-0.015359805692525,-0.001291383334081,0.887736723185673,0.253803934611025,0.068593971117332,0.004853678670127,5.105057801866820,0.097621700315113,-0.004445322672165,-0.000646151597741,9.839231917340491,-0.104963055153301,-0.027838583526814,-0.001998219725177,0.930609005944484,-0.074614199074967,0.039148179408351,0.003179091954017,5.180165853906507,-0.383474887821324,-0.027330970173054,-0.001100183127438,10.291335498286646,-0.365858410199268,-0.028875068479164,-0.001274498278221,0.544518834914354,0.170959533588085,0.021962569263772,0.000893425191498,5.154971915957749,-0.035405111736678,-0.005094733399923,-0.000397760278536,10.398385050864636,-0.043908292276837,-0.009112539250609,-0.000660041995653,0.096875201498691,0.058701167550519,0.009349952060146,0.000558781023425,5.214559834261997,0.193528168347020,0.007455224820061,0.000199094108910,10.201000911158625,0.383191035449297,0.020679039123066,0.000730448681738,0.024149578495159,0.007419436913374,0.001310979926818,0.000083107286920,5.420241347764436,0.147357113983868,0.010890476833684,0.000435817784218,9.772998409277719,0.038456171099263,0.012793991849950,0.000757457627963,0.903808038114284,-0.266738918389967,0.050618820551718,0.005281933376827,5.256710381939978,0.047754732280518,0.005046034942588,0.000310162528089,10.255736973366050,0.345056063574689,0.030958075078589,0.001630733984351,0.514539855389495,-0.214939710927120,-0.021823539561340,-0.001412653378657,5.302951714407919,-0.580652552639044,-0.042678758077830,-0.001860449583807,10.371437188023947,-0.948410181597609,-0.077185553493993,-0.003574992296621,0.093167046849840,0.000816327301586,-0.005154457884813,-0.000516588457382,5.376805238298189,0.030325747584506,-0.003104562950495,-0.000342450011380,10.173892474141450,0.200073445432471,0.003034844628917,-0.000275310855562,0.032173203621517,0.006327531093088,-0.000441237651795,-0.000038896889308
5.326175718745400,-0.541111822532312,-0.037510706290438,-0.001455402974531,10.245369230437577,-1.027728089403550,-0.071270762377228,-0.002858111440888,0.914007935892963,-0.044689847453047,-0.035988688310372,-0.001869652075709,5.179124887757848,0.044405998973691,-0.011976160953362,-0.001122175854217,10.196466056205477,-0.003864061096948,-0.023806734183454,-0.002066053253207,0.993548921092844,-0.379423559384750,-0.006844095232797,0.001603437481773,5.235859794531065,0.206098744106861,0.003548377422207,-0.000224571508844,10.081608633850108,0.195323777162618,-0.011054174701934,-0.001268413789847,1.140969851001357,0.028146459049694,0.023397415185381,0.001483339434295,5.377880001574291,-0.056085906227102,-0.006367607947050,-0.000421441138948,10.381520723160090,-0.021742758782932,-0.000331557819337,-0.000028715853688,1.252205561720177,0.225526427586520,0.054281911633845,0.006457054143211,5.461062584594106,0.737668980306611,0.053521921574892,0.002235181703445,10.463057601155430,1.642706808150430,0.115179554941751,0.004762611846456,1.328950876397725,-0.107865315416770,0.118761063578040,0.010468800104431,5.393611588649892,-0.057100628733834,0.000187988214616,0.000184092506782,10.255933604851281,-0.127084692529732,-0.004928863507329,-0.000067156138769,1.437698001573802,-0.168001743128484,-0.030265622574833,-0.001562208288490,5.265654681400606,0.369457675658596,0.029080804418754,0.001286250508971,10.360457118266616,0.889306321083237,0.070018256426223,0.003169864371647,1.509577667031466,-0.746155911210370,-0.115011773951717,-0.005822094186100,5.240164318793631,0.210415953581034,0.001145012961603,-0.000580460357116,10.164924903849064,0.544979643681986,0.015260431081894,-0.000404295263366,1.427031069188237,0.747388323008127,0.139613946050153,0.009077066882774,5.206412113214698,-0.084376592859071,0.003891286318354,0.000347072082067,10.246952493063466,-0.502581298735416,-0.023246034496244,-0.000813249662749,1.389647255776393,0.017166995199961,-0.085951532552813,-0.005599155456706,5.153618659851339,-0.195682817218888,0.001555263599019,0.000690470333410,10.300131847634699,-0.121577345081388,0.023491434006552,0.002230726064642,1.093897040457820,-0.210334476672680,-0.160967767058760,-0.012418030756635,5.075924265307955,-0.363666028946426,-0.034775482265565,-0.001680252218766,10.140853462648126,-0.664820303968120,-0.061021074911049,-0.002972950199914,0.865320769953227,0.196718380996964,-0.011028820378650,-0.002226741273180,5.414670510665902,0.198744942363887,0.026103721780948,0.001545145099199,10.200306817091072,0.190589433357963,0.034964104566656,0.002278548767831,1.424608845547923,0.251493933071217,-0.051665558344850,-0.005646542315781,5.377909713321312,-0.421829469109250,-0.030263665638054,-0.001192095820955,10.096430206332210,-0.684206276267645,-0.053076771914935,-0.002357782978408,1.355945790090616,-0.146595173754136,-0.089788319520520,-0.006355595376392,5.496464056019930,0.513608368034662,0.045111145013118,0.002372499672603,10.291247617801369,0.682574089709650,0.058008718895408,0.003039902869838,1.112888204992398,0.001481064322145,-0.107755171316198,-0.009159863431079,5.497211270638592,0.125442286043059,0.007804405048386,0.000318891050859,10.404548139656152,0.273402757398751,0.015900312109621,0.000549539256766,0.884738156182013,0.185741672061340,0.042047088449667,0.002662508573330,5.135563920522697,0.179739914946530,0.004494301478702,-0.000118061561774,9.833499278604839,-0.078679448207068,-0.024203599907648,-0.001758274953013,0.923285987208656,-0.144877731053884,0.013764514893764,0.001096975820239,5.198025242487031,-0.151512788975313,-0.002049624045149,0.000388903391353,10.394700447038110,0.120768562088703,0.022994307409393,0.001747167949607,0.545896283070711,0.155557025560022,0.013616294074577,0.000179812228612,5.162039705749203,0.009161468231954,-0.000319755568609,-0.000118775472567,10.412582582742770,0.029726548356909,-0.001254728596655,-0.000201930627512,0.097926723894270,0.063228671844181,0.010793381576080,0.000674798477732,5.189114147822211,0.070041387764977,-0.005683313792632,-0.000565115387196,10.177530447171947,0.225066295169825,0.003725901507633,-0.000259722334651,0.024014759091574,0.005481169591038,0.000689515495268,0.000032905790282,5.438558348862664,0.309127267562877,0.027964971804377,0.001423126204591,9.845287234541304,0.366796515542933,0.046959459286663,0.002718784833624,0.912184968780447,-0.166483286962434,0.081555974051150,0.007770357562285,5.277164304291692,0.218717536620523,0.023471038435431,0.001388774199170,10.330496903464546,0.677428771901898,0.066214380400043,0.003677848233065,0.515898496480123,-0.187566362739299,-0.014392072172372,-0.000827540284027,5.284780211738794,-0.652820797783843,-0.050378553632125,-0.002308787973063,10.339547380886721,-1.063216481552819,-0.089404119368573,-0.004285266550767,0.093836045682540,0.008093036305980,-0.002537785000541,-0.000302119800408,5.422125938098607,0.305620007846322,0.026423169767378,0.001382596125618,10.265230501877902,0.646350549953959,0.050628238782299,0.002497378203809,0.032019344876122,0.003380660127362,-0.001649682268862,-0.000139214807105
5.306385787555449,-0.674267165758467,-0.052834331455253,-0.002412493762150,10.178221915939998,-1.300156645423090,-0.102028351245159,-0.004760909701379,0.907495080271493,-0.094067121781088,-0.052713195487461,-0.003304049331425,5.196329804533053,0.024518395891626,-0.015550617605646,-0.001388477503553,10.149822083383864,-0.185533667330777,-0.045494779187717,-0.003449151037949,0.998177498796541,-0.291830401564894,0.032643877055847,0.005103225080714,5.243455240003722,0.258389017311295,0.010534628391082,0.000246205031311,10.105796792190484,0.303101833714600,0.002563938605178,-0.000373375197977,1.132678165146482,-0.059588462972529,-0.016017327450635,-0.002014092500961,5.347083304954920,-0.219646135616329,-0.024099621476931,-0.001491904436882,10.336084925420931,-0.264570125051796,-0.026677334737220,-0.001619780612245,1.239516549497635,0.094178419178290,0.004085506559641,0.002079881036719,5.436225759735983,0.666690044945499,0.044398214738335,0.001630231102148,10.500329331864217,1.681565252664586,0.117189910484218,0.004802846686482,1.342181145568160,0.032619178322909,0.177315844395022,0.015615606705371,5.362975003623980,-0.238302863542252,-0.020189616625516,-0.001072912398364,10.198302859911829,-0.419422775881940,-0.037676864741628,-0.002083272535320,1.426431541501141,-0.243475379042296,-0.054867199761640,-0.003661387360478,5.254334709336504,0.413790575930549,0.032374441737086,0.001426984153326,10.430587405236627,1.130147926452361,0.093764175733164,0.004515827718509,1.525551212729228,-0.532929683905914,-0.029491463570030,0.001674179270079,5.210758998878106,0.138389262331300,-0.005675958908430,-0.000956048821116,10.188156082760459,0.576995028140492,0.020051255106656,-0.000063788574520,1.425083836964854,0.658163092564295,0.101394153765763,0.005703052856026,5.191581314425595,-0.179218960948897,-0.006200218543094,-0.000254686734139,10.207332157667334,-0.674722440634756,-0.041577409994396,-0.001907467483587,1.378392363340199,-0.084944305151529,-0.124490535895010,-0.008951512583888,5.171223417796729,-0.053155821257514,0.019388226480077,0.001855260358870,10.349531676516735,0.136047070840770,0.054945815645802,0.004260795950303,1.079169296767328,-0.346649620192202,-0.222263076628428,-0.017855949075426,5.081839251644952,-0.185447076918322,-0.013453663613771,-0.000320255876151,10.230972665799142,-0.222705506581786,-0.010218362910913,0.000202342849050,0.868176316212289,0.190885195609733,-0.019150052382288,-0.002999587712860,5.408970608800926,0.178126128551786,0.024631497856295,0.001484061805580,10.203508935207779,0.186707331405417,0.035640769599856,0.002359911128772,1.419319345368945,0.176037206580594,-0.083004483260329,-0.008399231862100,5.367077704159128,-0.387607109552273,-0.027035620866374,-0.001020222422281,10.125728790234740,-0.546536941146106,-0.038718957917795,-0.001519795990575,1.368313373313564,-0.014031768485230,-0.044206061819109,-0.002331988867220,5.505753506048885,0.528290545085214,0.046713969794950,0.002469280276663,10.298801952371679,0.692701417324320,0.059138074556904,0.003108524465324,1.113277891010656,0.003452937238352,-0.106810340874487,-0.009071056625810,5.502128041642699,-0.046298791595599,-0.013236901668353,-0.001038412281068,10.290222886948841,-0.232824867347683,-0.042306229702886,-0.003089647860040,0.888062437235487,0.215997224765201,0.060782908076092,0.004367287010165,5.159172152733818,0.371239325002212,0.026203718265471,0.001226638170686,9.913916865827170,0.311177901540585,0.019412223873829,0.000925547486473,0.934978712574369,-0.031423605645714,0.056715898188788,0.004839659553187,5.179017012747635,-0.310154503742468,-0.020233177420979,-0.000744561455782,10.328596663746408,-0.200747507268022,-0.013290002646576,-0.000497507502580,0.536331027550474,0.054161670261961,-0.026358723179917,-0.003317345125886,5.159456600255870,-0.012462149544716,-0.002837733194225,-0.000277016295922,10.404234523160760,-0.012485940786138,-0.006089375097045,-0.000503239048594,0.097482251245609,0.053020982249824,0.006508095185172,0.000297351330711,5.241511786891192,0.267014049932637,0.016638669031947,0.000819325530300,10.202343592880458,0.403485099612480,0.024561361745225,0.001052908228914,0.024124834936640,0.005807232422394,0.000736948142559,0.000036226168181,5.455223436885917,0.432732145403400,0.042266701795241,0.002318866768239,9.900930435166716,0.615213092424594,0.075115285280304,0.004463271813695,0.915004144049284,-0.131071605439718,0.092854875129783,0.008731932167995,5.266405161718967,0.154094375119253,0.015818966660181,0.000902363516340,10.321895756384118,0.590241854886692,0.055781914997607,0.003010786028155,0.519006898010185,-0.137166641816476,0.007882579779084,0.001145114354686,5.275922239327311,-0.661126787658019,-0.051271521520131,-0.002362278087597,10.328541948303341,-1.069377046958004,-0.090060648581335,-0.004323856389056,0.093228338810110,0.001408809759492,-0.005308595409674,-0.000545559648599,5.410116674109946,0.096124613092830,0.001648318659727,-0.000187877248755,10.167173634313162,0.167247303026782,-0.004211869785753,-0.000922332564562,0.032123815877886,0.004635599855737,-0.000871759218790,-0.000068215759677
5.289614605867405,-0.663570212989820,-0.051955045155831,-0.002371317565530,10.194731473629275,-1.184542648086060,-0.089301413411836,-0.003966907043008,0.918473074130014,0.012524992810598,0.000141919847878,0.001691756735363,5.185497981507435,0.003662739235521,-0.017704149505891,-0.001516667542588,10.158381521277992,-0.155107222781841,-0.041641836970084,-0.003186459777852,0.993636173525410,-0.306911931628835,0.024491077703076,0.004323240060557,5.257313602047487,0.296276682270119,0.016628659016883,0.000705813139701,10.108493804206216,0.320918239505621,0.007185995619627,0.000024922039439,1.117675984542344,-0.193617834669605,-0.086262661022585,-0.008685806572929,5.338956626160419,-0.181983134824175,-0.018289150937021,-0.001062452175657,10.370803574157996,-0.104727444509213,-0.006161755237521,-0.000220728072000,1.236088977767002,0.048277598644145,-0.022632432480444,-0.000480405189469,5.383815574033172,0.381982074898125,0.008201840483787,-0.000824118537085,10.459367111897404,1.332937197528908,0.071949757907198,0.001702811174265,1.347623917933700,0.099441850588963,0.220475506034014,0.019772863887764,5.345757573394334,-0.253730022713854,-0.019883847099280,-0.000971968574364,10.214887383228499,-0.346528755626372,-0.026244832219688,-0.001229329022979,1.410920562943697,-0.366858117411778,-0.118588907188842,-0.009706093632717,5.244726776292675,0.264841849781601,0.012818868989573,0.000080348698866,10.373026719787378,0.799209669419342,0.052108767908085,0.001705173149519,1.519722363174797,-0.520737499759678,-0.013309255191369,0.003286151362966,5.214687694513392,0.119075668366606,-0.008390904652601,-0.001148169118936,10.175411826542744,0.497529297657247,0.010179331909037,-0.000724414819744,1.431495649685066,0.660736040735345,0.104211165369652,0.005982461505195,5.143166374580350,-0.310822808099337,-0.024229754869753,-0.001526466820293,10.215789679309150,-0.681086928196866,-0.046687553004768,-0.002406644229649,1.396909139234151,0.096140951053381,-0.029898644289881,0.000036929943565,5.153791037187594,-0.228393326230250,-0.002503158624023,0.000385243765792,10.270859875692754,-0.249772254327297,0.007994179720541,0.001149248223870,1.068027530578125,-0.405459529170334,-0.242801325256640,-0.019712767919901,5.104198059583383,-0.148297193959679,-0.008358191079390,0.000040365617138,10.199923134865642,-0.315725307601790,-0.019623220225871,-0.000350398141122,0.855655652868500,0.058876974529255,-0.086204026555326,-0.009353468994142,5.381010252981143,0.088754649886587,0.013804106616212,0.000766957290342,10.211059010586855,0.167133990795927,0.032558977082446,0.002129476506118,1.421909753077330,0.185757610806164,-0.075983811880538,-0.007709715115573,5.333801984617534,-0.572592662261077,-0.049983796501217,-0.002552757152552,10.061130138718749,-0.851097907520494,-0.076262163751360,-0.004018702213218,1.361558145916964,-0.061189971913658,-0.057497400627783,-0.003522463550761,5.514024740991090,0.482991786755008,0.041158570946822,0.002100551416775,10.268419058208083,0.531107371839910,0.040097234017406,0.001869814975388,1.106791490357079,-0.052098580282243,-0.131720130864254,-0.011393241804005,5.503525398110598,0.005917705938414,-0.004758379192951,-0.000397567996176,10.316715011308828,-0.097753732564987,-0.023151155429713,-0.001717388254726,0.868609297363426,0.014213352092781,-0.044526968327601,-0.005619627120320,5.201233465159770,0.617167716960025,0.057585709784873,0.003358666617228,9.996373423071141,0.728462868625899,0.071998300330337,0.004475535617521,0.930725219580606,-0.081430746545295,0.022096869481682,0.001472002051630,5.182722937171804,-0.384330968057415,-0.029817509200674,-0.001398191765682,10.262937800324003,-0.476974623544834,-0.046606738783227,-0.002694154344985,0.529459601505320,-0.010260386928793,-0.056588082090178,-0.006156174165886,5.175943802469100,0.150924884622741,0.017893404506845,0.001126280803187,10.476904336608358,0.341936091267163,0.037590750277498,0.002410384817634,0.097744727953011,0.049530205164322,0.004030338306267,0.000056202302260,5.278705318985896,0.535693844668114,0.050464458801000,0.003099895395423,10.309761223646493,0.923046478570823,0.088591498344927,0.005324024807939,0.024646676878569,0.009681500830806,0.002488467923535,0.000200250527765,5.448233363600662,0.513773556142150,0.054529633056462,0.003219353509331,9.983577820931844,0.944202893930123,0.117184059675647,0.007326521587579,0.899589655335567,-0.270470342863156,0.015709047852128,0.001345873668036,5.225119329802058,-0.047604318577684,-0.009165159305615,-0.000769165539884,10.287819258254121,0.345879898540796,0.024988298515220,0.000932091983480,0.520389064066741,-0.106559435447178,0.026595893926711,0.002943789862052,5.284692229522311,-0.570467690540266,-0.039948573049486,-0.001601629356657,10.344814935637427,-0.925416213414970,-0.072143151806131,-0.003122156958446,0.092274677975231,-0.008058318812977,-0.010375379630916,-0.001027456261157,5.368713326334922,-0.000787011359633,-0.009443694751093,-0.000898247785925,10.197928259201129,0.233487901021954,0.003388929044618,-0.000433744796137,0.032334296345299,0.006139619225110,-0.000090090445225,0.000005921488557
5.279668810477369,-0.665149386671165,-0.052000385304812,-0.002368676554160,10.189744627931438,-1.158795037828881,-0.085938933375114,-0.003729380447793,0.919032957829455,0.015832671897323,0.001768655363909,0.001851362595924,5.186237228787036,0.043429652781218,-0.012184287614910,-0.001114232566400,10.182942351728416,-0.034103496022001,-0.025893142673840,-0.002074767170071,0.992601283259058,-0.292110438002284,0.030890631622935,0.004946992681346,5.272456593244253,0.257189281857265,0.009047866513695,0.000076605906222,10.055288530242471,0.077764426640128,-0.026570423651603,-0.002437238405547,1.124249442818932,-0.112989003425757,-0.029505780977080,-0.002870001987859,5.360596080831558,-0.064766017993300,-0.003434416391730,-0.000030539384332,10.395713125364281,0.047894897577216,0.013280559017665,0.001132808496153,1.243446268902918,0.102231005039123,0.005448843162534,0.002321863251737,5.340060330811644,0.115126753593456,-0.029496893565725,-0.003594574941199,10.402628546752670,0.942311144420966,0.016695334414561,-0.002361938300100,1.358791144832709,0.207225090963687,0.298514192769424,0.027761717021661,5.321193418185086,-0.401278112648836,-0.044907355922948,-0.002962167067981,10.164744891455408,-0.597842303581108,-0.067274584649827,-0.004445724515585,1.437283643075651,-0.092624871569074,0.058992272527079,0.008371845004236,5.255676167855607,0.402502586259956,0.033012267551696,0.001590331200802,10.456095234853590,1.157582375952671,0.100813953994816,0.005219333731445,1.512968352706115,-0.549759943884782,-0.043741102297336,0.000103620972637,5.249946395339450,0.230717778218571,0.005763690968584,-0.000162946663686,10.176121026990995,0.527463102594317,0.014646647337707,-0.000386756691810,1.438926185129960,0.665813882960768,0.104141313129262,0.005946108331900,5.147960770830572,-0.315627210678960,-0.024963284818444,-0.001580865764502,10.187323837369592,-0.769570003620349,-0.057686912523928,-0.003161835590314,1.394921491050944,0.072662444983048,-0.041786615132458,-0.001149360418332,5.195404855497547,0.063137579188765,0.037636372120310,0.003298572830438,10.365356719599081,0.262417126644194,0.077312624938840,0.006138434301289,1.061567373069314,-0.446543266627557,-0.281341784744246,-0.023719671288289,5.112691665428962,-0.063937335253224,0.003897956751844,0.000953221806224,10.231184281923190,-0.141664967854198,0.004572975044898,0.001415142350664,0.849454653652806,-0.006180130774279,-0.129902086201151,-0.013812578309954,5.350583540237144,-0.122274649814414,-0.010535125155094,-0.000825292766265,10.138950830316807,-0.210411296918102,-0.011454667720770,-0.000772189368486,1.391976278393576,-0.078616879406371,-0.225037689954020,-0.022688368678883,5.364356332455539,-0.453685476464439,-0.037106636807298,-0.001756478679265,10.054578876989478,-0.793122933663355,-0.071801770066835,-0.003838816358470,1.382434027043917,0.130776009964324,0.041402117799990,0.006596723565211,5.557330143434517,0.707692514564310,0.071013378835818,0.004227871074691,10.336995966181941,0.877060592142941,0.085894973704689,0.005127441796433,1.111138147693183,-0.022672546137060,-0.123138480170254,-0.010597987969490,5.514846860690799,0.045585501978398,0.001663916572967,0.000105213688695,10.315669109322904,-0.079733179665323,-0.018596031712780,-0.001309301336199,0.854251722004826,-0.114256354667187,-0.123946358298390,-0.013656739669082,5.214109438179765,0.697838441307130,0.067523884047825,0.004035146634782,10.044203795920524,0.924767575761404,0.096088071884076,0.006114941089178,0.942545198932102,0.025148546037160,0.084874705732395,0.007818565977421,5.208850334139860,-0.218083865609040,-0.007435256298799,0.000208126812902,10.302373832483374,-0.230349287274380,-0.013366655032423,-0.000306339528449,0.526734157675766,-0.038156574010137,-0.077006937964140,-0.008251578482772,5.173516759506549,0.082667632358717,0.008386048322634,0.000432661447795,10.442224917532981,0.160966824777690,0.013735541576068,0.000716344479117,0.096728326728579,0.036718426519215,-0.003520267491481,-0.000705492744272,5.229352922267353,0.292772149960295,0.018601376005784,0.000843181584213,10.280112561963419,0.666186194031799,0.053925866974371,0.002832539423323,0.024959543747826,0.011828837616407,0.004001846580554,0.000355277093186,5.460267645177968,0.545406924185157,0.057972196492543,0.003434365576998,9.998601491046486,0.980301934748464,0.120944606709555,0.007552106456253,0.904084392163749,-0.207603271376419,0.053736248158639,0.005203470485021,5.266717789561100,0.223107092421377,0.027099081904991,0.001826115831853,10.378445272404161,0.807090787726993,0.086023097856179,0.005273361292137,0.523623108293330,-0.075875926172389,0.039409377828471,0.004191354637835,5.274979954588870,-0.592170481384208,-0.042796012553012,-0.001803493236171,10.330269465309536,-0.956299891520298,-0.076204847835457,-0.003410259288851,0.092568930321083,-0.004764804789580,-0.008229144237492,-0.000808357948921,5.330832716400918,-0.146540041534027,-0.028246631665705,-0.002217604437465,10.189947208709812,0.131039686322863,-0.010666232929653,-0.001450788926438,0.032155859906672,0.004170383727049,-0.001199414484199,-0.000105540649128
5.290442579360362,-0.602268661385883,-0.043633956441167,-0.001757283605120,10.180260621773428,-1.125677807575906,-0.081286446848019,-0.003380579097246,0.922194060128997,0.039862656305528,0.017791470484061,0.003565865445205,5.175736845180605,0.087029873547928,-0.004534195575517,-0.000479273813443,10.242336051038953,0.229468472412500,0.011114850177156,0.000711940528116,0.990607580258109,-0.289760516253972,0.025872922103804,0.004352707360165,5.286694794036777,0.327397982425280,0.019922121703264,0.000935831000233,10.076880000730437,0.191095574744958,-0.009241133345407,-0.001075134020824,1.119072314152641,-0.150884975238012,-0.061833006534819,-0.006389590878991,5.370999148681188,0.143802135083259,0.030896871488794,0.002749933711648,10.516691892957684,0.624698396838028,0.098603120999766,0.007726376079094,1.232724713336215,-0.013518091314469,-0.098954179403894,-0.009076776975004,5.372860026021412,0.321236523713332,0.005676285791751,-0.000696838068083,10.479734646219100,1.303250201006622,0.075754572918666,0.002423377212428,1.333313719070418,-0.034312175082955,0.105888485557706,0.006867145104597,5.303187877559838,-0.435985630692874,-0.048308812410953,-0.003159027077635,10.169018131073713,-0.569907879107699,-0.062081177399963,-0.004001846049199,1.430866291076724,-0.138546911219351,0.024932140725090,0.004688369725110,5.247788666335915,0.338573575492343,0.022263736047131,0.000711061957089,10.451916661085445,1.067646227545506,0.085463990769247,0.003955278034738,1.514303321495692,-0.488667142438293,0.006153069032308,0.005514355787868,5.248120761831607,0.086389345315023,-0.018139049069012,-0.002104351392295,10.087495479292176,0.083546247402722,-0.050407230565500,-0.005392299236904,1.450209266659153,0.719955383260752,0.161103774022611,0.012225314037085,5.175077780028974,-0.110191450464791,0.009206730986652,0.001204471668085,10.249098954541411,-0.399525564926446,0.001623263580301,0.001597178129528,1.375089926734473,-0.115477825310535,-0.194974251425903,-0.017793648656503,5.154428279995767,-0.166109268500798,0.003835857152827,0.000688790913642,10.308459335535217,-0.073348550798040,0.027646281990937,0.002297281669907,1.061241940248624,-0.403439445646204,-0.235686094519154,-0.018675008523682,5.133137488773747,0.058497223647458,0.022475390134776,0.002405999215494,10.264271563443948,0.049484220083395,0.033435374056548,0.003666923551352,0.841584799830892,-0.078006437246122,-0.187779682337921,-0.020093287014750,5.368603445162375,-0.036166293020535,-0.002947856307983,-0.000434979940657,10.152271511504042,-0.117111157462972,-0.004559573961766,-0.000504065717957,1.417438686417134,0.136458073418380,-0.070237621721244,-0.006013451904372,5.364239518221666,-0.375153400345894,-0.021936319563623,-0.000436108082558,10.087656484899176,-0.594207743866833,-0.038576469847189,-0.001107342724798,1.363061820007102,-0.057699576770731,-0.085017331268570,-0.007295637462420,5.552264199342518,0.600723934391741,0.053809021099156,0.002845843357614,10.300021308921306,0.647452935659464,0.051314558319497,0.002430229485250,1.118273589648497,0.044446431342563,-0.064932496722563,-0.004255439601554,5.492978051638893,-0.051525662045177,-0.011690038737538,-0.000888709114543,10.301581164722197,-0.172549554266062,-0.031786946924178,-0.002306990869309,0.850404880493626,-0.135586443498877,-0.135757878567269,-0.014890221849246,5.200170795117489,0.554884455093248,0.046230864378596,0.002383638501042,10.002939962246785,0.661203104031818,0.057863775194128,0.003188272341173,0.944399766924145,0.046192873680205,0.107969984473696,0.010367029194734,5.183016418410952,-0.353421232674549,-0.026955580035210,-0.001281696468329,10.262570122847304,-0.437919897470038,-0.043246655383422,-0.002584364180122,0.527759781542425,-0.023896477526530,-0.062438076196851,-0.006641223070981,5.158802717116951,-0.052577294656993,-0.011530032671715,-0.001101563549617,10.385136701040048,-0.134293856097548,-0.028087901165683,-0.002445318040970,0.096434708134054,0.031802807421894,-0.006294010609314,-0.000996961811712,5.255760881009678,0.434629781772122,0.038979941027982,0.002394537907334,10.329339777301096,0.897286277754030,0.086807958660343,0.005323683968258,0.024894604999013,0.010169404340822,0.002563656254134,0.000198131881967,5.475259682049236,0.682956298519119,0.078537100746753,0.005029619206116,10.082105031999918,1.335607187891351,0.170836975534683,0.011305172031501,0.904860345974083,-0.190931424809697,0.056823907271686,0.005464277007353,5.258077243268021,0.122711164269381,0.011859746875614,0.000634341742574,10.341673160884469,0.584363589367808,0.053869965914968,0.002817242755282,0.527587075541102,-0.032666058240195,0.074677531462165,0.008016623220314,5.234578914361159,-0.822177302597859,-0.076070883505233,-0.004345372273171,10.242695074595675,-1.367579323523012,-0.134653210298383,-0.007836202710541,0.093742114053909,0.006486493905339,0.001237507367393,0.000222482095173,5.374537831264940,0.075790948857819,0.003160112831151,0.000154329913199,10.235935607424286,0.400717163576936,0.028120506536676,0.001504731895013,0.031853595539581,0.001002465788355,-0.003859956516133,-0.000394705663697
5.307197366241907,-0.576806928333279,-0.042307632152942,-0.001753064476894,10.128075260821120,-1.288012042333879,-0.106603774919492,-0.005443552507863,0.929866346877142,0.101576002080688,0.074590808108997,0.010079859871501,5.178283575149617,0.160865808774225,0.011082038697300,0.000953337553990,10.295810024466496,0.472976826022218,0.052596683155121,0.004227107094695,0.967915273629629,-0.455403677866292,-0.127951626157166,-0.013296530053866,5.295829130759192,0.436262789947304,0.038934282584356,0.002561341499780,10.146178007558303,0.514917403329812,0.041069587015086,0.003011535496608,1.114495737224611,-0.184205107639901,-0.103337580060897,-0.011218316716735,5.380334859011388,0.164144672243775,0.034482528704854,0.003057306055460,10.516429837614773,0.606336623832485,0.097272383663907,0.007675631430741,1.227700274931677,-0.053998876845508,-0.132986811590441,-0.012950916428494,5.326276523036708,0.018062151662955,-0.039280346641706,-0.004258155838890,10.400312666272789,0.808748424473422,0.002882855069910,-0.003332950805328,1.317357252396375,-0.144061697596743,0.034614238141261,-0.001099973782298,5.300927995057508,-0.397505241593068,-0.038976017773583,-0.002266446189832,10.186047282057309,-0.460211979627410,-0.041098058990674,-0.002138482734982,1.416754109483299,-0.245190114338711,-0.072530818718867,-0.006492454013873,5.247601529593605,0.232911194240259,0.001369782120950,-0.001160629525604,10.391690829668907,0.730374214203851,0.029839853609859,-0.000690410109880,1.519497088868062,-0.395938908417022,0.103657543864102,0.016755528627703,5.238422540740300,0.063067097913165,-0.020798093584592,-0.002281049423583,10.100098899136910,0.124571792538198,-0.044052365525165,-0.004872862340515,1.456238961688983,0.711411630824948,0.151258580728548,0.011078155128240,5.187157769040292,0.062645378394660,0.039930765879412,0.003851530582066,10.339039372684125,0.060790527760181,0.075187976758113,0.007652515028864,1.365861250076410,-0.197325800417169,-0.285849038718848,-0.028316289857817,5.150278991849409,-0.146835012629620,0.006673905187081,0.000911034438817,10.329465960214312,0.024789971890216,0.041328941506117,0.003344530542988,1.062087651483978,-0.368086517958281,-0.206559872686890,-0.015345881734037,5.117787993025867,-0.037877606488315,0.006708675734377,0.001092346811519,10.235190860876111,-0.110525906837794,0.007652079078353,0.001533640154173,0.846425734055975,-0.030626749127118,-0.139420924506083,-0.014495842747708,5.367927546917251,-0.006772510467286,0.006335225014280,0.000507824968245,10.172368200351553,-0.014632772592681,0.017123330281630,0.001489604194827,1.399527673792085,-0.023792225883211,-0.213612532936220,-0.022419291567734,5.366526248842206,-0.389696404198767,-0.023800263400211,-0.000569236193388,10.055648078981113,-0.705724624868275,-0.053784508113481,-0.002253455925955,1.356074788092864,-0.109288476018950,-0.119651902717270,-0.011271662363812,5.563063172190200,0.552014530977678,0.046623855820276,0.002280023793613,10.255246322028272,0.416699636509258,0.019126427417296,-0.000037333458084,1.107101977640290,-0.045104158810377,-0.134566642847152,-0.012143281243418,5.466997371533647,-0.123809259086310,-0.023168492567980,-0.001832864546260,10.315359222761611,-0.136023538530669,-0.029233525379574,-0.002223267140212,0.861361565398770,-0.036968147869225,-0.049068477426261,-0.004977550868452,5.261226031816769,0.828653777647864,0.088909338346057,0.005856229815422,10.063811340965547,0.988547519924438,0.110421813688297,0.007523291228378,0.938349803966226,-0.014344128627226,0.039878591094924,0.002459232146815,5.190242124739983,-0.325301780817260,-0.023352285688573,-0.001019220257533,10.250512686595027,-0.460190123966081,-0.046631812127426,-0.002856584020986,0.530425766449762,-0.000799298087278,-0.041866220797282,-0.004280469532220,5.148827445249126,-0.166385176588788,-0.029942794296936,-0.002623177591838,10.322686279928467,-0.433841724190717,-0.073281396960869,-0.006060249116899,0.096135549090577,0.027339573186215,-0.009156150049814,-0.001315241461419,5.232735924483260,0.329434681331828,0.023599871247457,0.001182968025077,10.333367371952383,0.839413972362487,0.077339793258330,0.004535912660341,0.024752475977742,0.008264598775877,0.000956000883794,0.000014586264091,5.446341711211993,0.519092774020493,0.053529051439663,0.003015093393027,10.070188026179524,1.172852558667172,0.144802672833867,0.009158824841113,0.904083763744538,-0.176605431116279,0.075728216399154,0.007671759999149,5.242899732286689,0.045228681803190,0.000660952306918,-0.000241612982826,10.333591531646794,0.498431173098973,0.041171746467929,0.001812630506891,0.521105265126558,-0.080719939358213,0.033931045329531,0.003364419987991,5.247891718863226,-0.669681568096184,-0.052097650384761,-0.002388443470446,10.286471105870977,-1.071824937843576,-0.089564558641635,-0.004208432288831,0.092802324761264,-0.002327760357881,-0.007405368044261,-0.000772591355976,5.354323468329071,-0.001101983114430,-0.007949640694899,-0.000715246152618,10.239485216761230,0.371145486538329,0.023128062204431,0.001084166736636,0.031563836945310,-0.001422184645512,-0.005891832664731,-0.000625916254249
5.353337397131698,-0.448349507182324,-0.026381331270023,-0.000603571795743,10.068017460015639,-1.445791634745565,-0.133051163242081,-0.007731763441206,0.943247092669959,0.200787098656519,0.176323012053984,0.022358832527550,5.149572953204456,0.059215557077642,-0.004899630780718,-0.000385502917569,10.308849615676092,0.475361114351352,0.050834505916739,0.003986527379473,0.967253623163487,-0.424972092132724,-0.093304402360547,-0.009084745101558,5.319814607237208,0.581902264116515,0.064534968732858,0.004817455350194,10.210819045573064,0.819041295575280,0.091670450812084,0.007363073200474,1.111165935881651,-0.204182280729271,-0.138052713714482,-0.015495644645301,5.426696313276869,0.351987930690070,0.067141148390721,0.005923977590453,10.540763564745040,0.750286974449952,0.126324333413527,0.010379671533674,1.214183240907412,-0.162388593396343,-0.251781504322106,-0.027322053350728,5.331812559424950,0.027983323813571,-0.037755318553754,-0.004128848023263,10.400689407814022,0.779669158730339,-0.001199658124485,-0.003648804177735,1.314349184610060,-0.155557033323142,0.023624718255599,-0.002416394248482,5.314333775788634,-0.322861709883408,-0.028773025984809,-0.001479638451588,10.190744804392896,-0.396113729675239,-0.032673409614370,-0.001507187277753,1.422116313470720,-0.187072648868018,-0.018475773945237,0.000002710976122,5.217062822886145,-0.017506466198591,-0.043717000072601,-0.005173382004151,10.293887416802054,0.196284654404739,-0.060457864082934,-0.008513121450244,1.517818156657792,-0.359808858020118,0.173781347841830,0.025403002783379,5.224242187901916,-0.042925871816019,-0.038880610478273,-0.003852384958281,10.059736849284658,-0.089257827933340,-0.078984866959076,-0.007848580938178,1.461370092374808,0.703619636186030,0.154973004396589,0.011608567354658,5.188678996916867,0.054887238401008,0.042468525728462,0.004227589949217,10.328585051714118,0.013133261615571,0.073842579725736,0.007805294494457,1.345442960662600,-0.344258926879019,-0.429266012215107,-0.045577331424859,5.129587615817210,-0.158708063196728,0.002143413751546,0.000409539351708,10.379373088399809,0.230504866717158,0.066625082929199,0.005149423080740,1.085581407605895,-0.159226975679618,-0.000541846179986,0.009497001668470,5.076475829274225,-0.190639976706754,-0.019228406479676,-0.001164179228143,10.233087180627216,-0.166656051052529,-0.006437064911171,0.000125929441737,0.862218920225114,0.097120819519352,-0.002737711025118,0.002063258045856,5.378039584464545,0.008078484008024,0.007425034664759,0.000545917607690,10.154077586027958,-0.086925909430157,0.005203673494440,0.000467260744226,1.400545786926702,-0.014559950224464,-0.199449391142389,-0.020665279521530,5.362069711456296,-0.297485710177442,-0.001029222390128,0.001721040215509,10.117050497124669,-0.382193403245164,0.007025528115019,0.003303168441487,1.328242340661129,-0.336579840790019,-0.335553631229948,-0.037836327146641,5.575776238349744,0.582493307231436,0.048559287853333,0.002317849877419,10.263184285836788,0.441444819272822,0.019149811138404,-0.000202805011549,1.121800755602051,0.071417046722450,-0.016081137772586,0.002136587512596,5.484793159216339,-0.067916713979500,-0.012864126239656,-0.000901915413895,10.302067829678892,-0.166498143037252,-0.030237508229579,-0.002141507234153,0.845841320104761,-0.156311458977714,-0.169602808278478,-0.019496170101234,5.296267104901243,0.998039870673911,0.117116611708096,0.008281386783067,10.130482129700431,1.289018932701029,0.159346917967305,0.011685293943257,0.940402787359867,-0.002952897643465,0.038500221671386,0.002203778367688,5.185528229747715,-0.328070477795064,-0.023655464374378,-0.001039290858093,10.248169951641785,-0.451872277456069,-0.045290447764014,-0.002742385532261,0.530383344436739,-0.001534477748615,-0.042353880703574,-0.004335064292440,5.190709117379718,0.112121879435930,0.016608844588297,0.001388750161339,10.415760886462103,0.077517164511594,0.010071588516504,0.001040590865213,0.094693174621394,0.012699154987990,-0.026159678911002,-0.003380191720061,5.252232920730203,0.441610581795187,0.042431344563357,0.002808893742842,10.384077943727362,1.058636004837214,0.112853369913014,0.007550737368298,0.024305712686999,0.003994580529010,-0.003667074812150,-0.000545371188304,5.431445240058899,0.372034132682862,0.025831034102448,0.000497897414534,10.025187583680228,0.884463660035290,0.093776423619326,0.004639534902697,0.917960866567382,-0.046272753521975,0.219418234972045,0.025112260744006,5.298138186425555,0.358598103386800,0.052882111419963,0.004252167146460,10.428742808316319,0.989265731434263,0.122340333107947,0.008773945103666,0.515726945761452,-0.122235485229961,-0.020713903360679,-0.003307784521730,5.268024047772726,-0.567116307839898,-0.036183660223191,-0.001065769278850,10.280029000304706,-1.018798104023380,-0.080171541868813,-0.003378737722610,0.093096790976126,-0.000080577513008,-0.005431942083514,-0.000536161997362,5.323503732603490,-0.176962973803123,-0.036880743524163,-0.003189124682585,10.193412972463420,0.100581269270561,-0.021154525346813,-0.002693971775531,0.031596143867024,-0.000914139468127,-0.004906070841880,-0.000503527456029
