Pelvis_pos_x,Pelvis_vel_x,Pelvis_acc_x,Pelvis_jerk_x,Pelvis_pos_y,Pelvis_vel_y,Pelvis_acc_y,Pelvis_jerk_y,Pelvis_pos_z,Pelvis_vel_z,Pelvis_acc_z,Pelvis_jerk_z,L5_pos_x,L5_vel_x,L5_acc_x,L5_jerk_x,L5_pos_y,L5_vel_y,L5_acc_y,L5_jerk_y,L5_pos_z,L5_vel_z,L5_acc_z,L5_jerk_z,L3_pos_x,L3_vel_x,L3_acc_x,L3_jerk_x,L3_pos_y,L3_vel_y,L3_acc_y,L3_jerk_y,L3_pos_z,L3_vel_z,L3_acc_z,L3_jerk_z,T12_pos_x,T12_vel_x,T12_acc_x,T12_jerk_x,T12_pos_y,T12_vel_y,T12_acc_y,T12_jerk_y,T12_pos_z,T12_vel_z,T12_acc_z,T12_jerk_z,T8_pos_x,T8_vel_x,T8_acc_x,T8_jerk_x,T8_pos_y,T8_vel_y,T8_acc_y,T8_jerk_y,T8_pos_z,T8_vel_z,T8_acc_z,T8_jerk_z,Neck_pos_x,Neck_vel_x,Neck_acc_x,Neck_jerk_x,Neck_pos_y,Neck_vel_y,Neck_acc_y,Neck_jerk_y,Neck_pos_z,Neck_vel_z,Neck_acc_z,Neck_jerk_z,Head_pos_x,Head_vel_x,Head_acc_x,Head_jerk_x,Head_pos_y,Head_vel_y,Head_acc_y,Head_jerk_y,Head_pos_z,Head_vel_z,Head_acc_z,Head_jerk_z,RightShoulder_pos_x,RightShoulder_vel_x,RightShoulder_acc_x,RightShoulder_jerk_x,RightShoulder_pos_y,RightShoulder_vel_y,RightShoulder_acc_y,RightShoulder_jerk_y,RightShoulder_pos_z,RightShoulder_vel_z,RightShoulder_acc_z,RightShoulder_jerk_z,RightUpperArm_pos_x,RightUpperArm_vel_x,RightUpperArm_acc_x,RightUpperArm_jerk_x,RightUpperArm_pos_y,RightUpperArm_vel_y,RightUpperArm_acc_y,RightUpperArm_jerk_y,RightUpperArm_pos_z,RightUpperArm_vel_z,RightUpperArm_acc_z,RightUpperArm_jerk_z,RightForearm_pos_x,RightForearm_vel_x,RightForearm_acc_x,RightForearm_jerk_x,RightForearm_pos_y,RightForearm_vel_y,RightForearm_acc_y,RightForearm_jerk_y,RightForearm_pos_z,RightForearm_vel_z,RightForearm_acc_z,RightForearm_jerk_z,RightHand_pos_x,RightHand_vel_x,RightHand_acc_x,RightHand_jerk_x,RightHand_pos_y,RightHand_vel_y,RightHand_acc_y,RightHand_jerk_y,RightHand_pos_z,RightHand_vel_z,RightHand_acc_z,RightHand_jerk_z,LeftShoulder_pos_x,LeftShoulder_vel_x,LeftShoulder_acc_x,LeftShoulder_jerk_x,LeftShoulder_pos_y,LeftShoulder_vel_y,LeftShoulder_acc_y,LeftShoulder_jerk_y,LeftShoulder_pos_z,LeftShoulder_vel_z,LeftShoulder_acc_z,LeftShoulder_jerk_z,LeftUpperArm_pos_x,LeftUpperArm_vel_x,LeftUpperArm_acc_x,LeftUpperArm_jerk_x,LeftUpperArm_pos_y,LeftUpperArm_vel_y,LeftUpperArm_acc_y,LeftUpperArm_jerk_y,LeftUpperArm_pos_z,LeftUpperArm_vel_z,LeftUpperArm_acc_z,LeftUpperArm_jerk_z,LeftForearm_pos_x,LeftForearm_vel_x,LeftForearm_acc_x,LeftForearm_jerk_x,LeftForearm_pos_y,LeftForearm_vel_y,LeftForearm_acc_y,LeftForearm_jerk_y,LeftForearm_pos_z,LeftForearm_vel_z,LeftForearm_acc_z,LeftForearm_jerk_z,LeftHand_pos_x,LeftHand_vel_x,LeftHand_acc_x,LeftHand_jerk_x,LeftHand_pos_y,LeftHand_vel_y,LeftHand_acc_y,LeftHand_jerk_y,LeftHand_pos_z,LeftHand_vel_z,LeftHand_acc_z,LeftHand_jerk_z,RightUpperLeg_pos_x,RightUpperLeg_vel_x,RightUpperLeg_acc_x,RightUpperLeg_jerk_x,RightUpperLeg_pos_y,RightUpperLeg_vel_y,RightUpperLeg_acc_y,RightUpperLeg_jerk_y,RightUpperLeg_pos_z,RightUpperLeg_vel_z,RightUpperLeg_acc_z,RightUpperLeg_jerk_z,RightLowerLeg_pos_x,RightLowerLeg_vel_x,RightLowerLeg_acc_x,RightLowerLeg_jerk_x,RightLowerLeg_pos_y,RightLowerLeg_vel_y,RightLowerLeg_acc_y,RightLowerLeg_jerk_y,RightLowerLeg_pos_z,RightLowerLeg_vel_z,RightLowerLeg_acc_z,RightLowerLeg_jerk_z,RightFoot_pos_x,RightFoot_vel_x,RightFoot_acc_x,RightFoot_jerk_x,RightFoot_pos_y,RightFoot_vel_y,RightFoot_acc_y,RightFoot_jerk_y,RightFoot_pos_z,RightFoot_vel_z,RightFoot_acc_z,RightFoot_jerk_z,RightToe_pos_x,RightToe_vel_x,RightToe_acc_x,RightToe_jerk_x,RightToe_pos_y,RightToe_vel_y,RightToe_acc_y,RightToe_jerk_y,RightToe_pos_z,RightToe_vel_z,RightToe_acc_z,RightToe_jerk_z,LeftUpperLeg_pos_x,LeftUpperLeg_vel_x,LeftUpperLeg_acc_x,LeftUpperLeg_jerk_x,LeftUpperLeg_pos_y,LeftUpperLeg_vel_y,LeftUpperLeg_acc_y,LeftUpperLeg_jerk_y,LeftUpperLeg_pos_z,LeftUpperLeg_vel_z,LeftUpperLeg_acc_z,LeftUpperLeg_jerk_z,LeftLowerLeg_pos_x,LeftLowerLeg_vel_x,LeftLowerLeg_acc_x,LeftLowerLeg_jerk_x,LeftLowerLeg_pos_y,LeftLowerLeg_vel_y,LeftLowerLeg_acc_y,LeftLowerLeg_jerk_y,LeftLowerLeg_pos_z,LeftLowerLeg_vel_z,LeftLowerLeg_acc_z,LeftLowerLeg_jerk_z,LeftFoot_pos_x,LeftFoot_vel_x,LeftFoot_acc_x,LeftFoot_jerk_x,LeftFoot_pos_y,LeftFoot_vel_y,LeftFoot_acc_y,LeftFoot_jerk_y,LeftFoot_pos_z,LeftFoot_vel_z,LeftFoot_acc_z,LeftFoot_jerk_z,LeftToe_pos_x,LeftToe_vel_x,LeftToe_acc_x,LeftToe_jerk_x,LeftToe_pos_y,LeftToe_vel_y,LeftToe_acc_y,LeftToe_jerk_y,LeftToe_pos_z,LeftToe_vel_z,LeftToe_acc_z,LeftToe_jerk_z
4.6304714166741725,0,0,0,10.382586027123565,0,0,0,0.94826712631928245,0,0,0,5.1129462747169292,0,0,0,10.045676107988507,0,0,0,1.0136767675359544,0,0,0,5.7849216391874183,0,0,0,9.947917874219403,0,0,0,1.1809605861900332,0,0,0,5.4147902465317745,0,0,0,9.9490098131092424,0,0,0,1.3113976098547868,0,0,0,5.7227118984903953,0,0,0,10.132679078896899,0,0,0,1.3497691318848755,0,0,0,5.2448476154836738,0,0,0,10.366891501338818,0,0,0,1.4884033257139566,0,0,0,5.4294690645954864,0,0,0,9.8366469816526969,0,0,0,1.5615100354612608,0,0,0,5.7041368316674621,0,0,0,9.4438713317872125,0,0,0,1.2992845727724986,0,0,0,5.0426466796736378,0,0,0,10.243518229924453,0,0,0,1.4391061977732016,0,0,0,5.007012803790758,0,0,0,10.703944479172449,0,0,0,1.015809725904975,0,0,0,4.8618958177623757,0,0,0,10.608571102812753,0,0,0,0.86545798567436316,0,0,0,5.4634788268516914,0,0,0,9.677776297590917,0,0,0,1.3842061521811542,0,0,0,5.3733396704943592,0,0,0,9.4587375149500659,0,0,0,1.3024318126988534,0,0,0,5.1858307846293181,0,0,0,9.9178662523786834,0,0,0,1.1069381361202031,0,0,0,5.1006887218749712,0,0,0,9.7988873672726076,0,0,0,0.76175025772070726,0,0,0,5.1897945161963959,0,0,0,10.382152446580037,0,0,0,0.90673202745637826,0,0,0,5.0985125573590793,0,0,0,10.608501639629003,0,0,0,0.55285318676176864,0,0,0,5.4299022526348866,0,0,0,9.8209575299902543,0,0,0,0.087332689928997037,0,0,0,4.9819579663765019,0,0,0,11.010282000541181,0,0,0,0.02322464357501923,0,0,0,5.4840504886761279,0,0,0,11.137295065967052,0,0,0,0.83572473949491011,0,0,0,5.436085594614485,0,0,0,9.803178927430455,0,0,0,0.5075042990601869,0,0,0,5.6677646253166278,0,0,0,9.6492794476551929,0,0,0,0.10177178358812335,0,0,0,5.0859870587371709,0,0,0,9.8152898225400058,0,0,0,0.032663502651150277,0,0,0
5.3915911870762709,0.0076108171726755533,3.805408581581253e-05,1.90260916033261e-07,10.572530617137812,0.0018993509349698283,9.4967546629787893e-06,4.7481399244931705e-08,0.89579041262692305,-0.00052474090053447121,-2.6237044993928889e-06,-1.3117866603634265e-08,4.6888335303768773,-0.0042409154029313416,-2.120457698815231e-05,-1.0601758406155847e-07,10.199340107084913,0.0015365631647264566,7.6828158140292416e-06,3.8412158462223098e-08,1.0286623461392292,0.00014984829380536367,7.4924146809031312e-07,3.7460200394495932e-09,4.8623871680092057,-0.0092248834791388932,-4.6124417338041818e-05,-2.3061055616240097e-07,9.4884586106675552,-0.0045943629231150872,-2.2971814586862103e-05,-1.1485333026779712e-07,1.1062815272006392,-0.00074675325316469175,-3.7337662611564835e-06,-1.8667897910886872e-08,5.354535385974871,-0.00060251848039814088,-3.0125923982251514e-06,-1.5062208880681724e-08,10.185984561159751,0.0023696290020169168,1.1848144995275141e-05,5.9237763088221292e-08,1.2067071034753671,-0.001046852722466595,-5.2342636057904715e-06,-2.6170009528475938e-08,5.8246520468706358,0.0010193505175506705,5.0967525813827292e-06,2.5482488782474524e-08,9.6449614808744553,-0.0048769321397134193,-2.4384660668087792e-05,-1.2191720748006495e-07,1.325160452545054,-0.00024607448998129885,-1.2303724483686054e-06,-6.1515546641098216e-09,5.519296747086468,0.0027443541017531806,1.3721770491614544e-05,6.8605422186963379e-08,10.03050520980287,-0.0033636947348272229,-1.6818473653114069e-05,-8.4088163857377483e-08,1.4676525456586074,-0.00020749742594155919,-1.0374871284110017e-06,-5.1871762832408472e-09,5.1159832185016043,-0.0031347017297705818,-1.5673508629262e-05,-7.8363624965061746e-08,10.20151833949337,0.0036485311564094188,1.8242655759244912e-05,9.1208718360306536e-08,1.5505914316459042,-0.00010918057926107298,-5.4590289562302032e-07,-2.7293780092146408e-09,5.1198203578430128,-0.0058428726019177481,-2.9214362973072607e-05,-1.4606451163978106e-07,10.202391191843885,0.0075848193690789909,3.7924096797992193e-05,1.8961100343978898e-07,1.3771021431125428,0.00077813679753320345,3.8906839828029046e-06,1.9452447291649942e-08,5.327208151654502,0.0028454724497428813,1.4227362230931092e-05,7.1133254491930862e-08,10.798038740053965,0.0055449278618329564,2.7724639274510712e-05,1.3861626555927559e-07,1.2970237485537195,-0.0014207534562978884,-7.1037672726101758e-06,-3.5517060510025377e-08,5.5034229156354204,0.0049638529320046327,2.4819264629000629e-05,1.2409011863907119e-07,10.481681383476072,-0.0022225198337501306,-1.1112599154860598e-05,-5.5560217763414816e-08,0.99407068724127812,-0.00021737951793278715,-1.0868975883053815e-06,-5.4342162307153713e-09,4.9903601047457951,0.0012845786425077351,6.4228932045104596e-06,3.2112860379533321e-08,10.456224709094583,-0.0015233877696973898,-7.616938838966249e-06,-3.808279005532848e-08,0.87396583176069886,8.5074207259333345e-05,4.2537103576497938e-07,2.1267488413828282e-09,5.3659263139092328,-0.00097547635682605251,-4.8773817780338388e-06,-2.4385689605688913e-08,10.52355866025831,0.0084574007672069754,4.2287003783178757e-05,2.1142444769350911e-07,1.3977892602654014,0.00013582428979775694,6.7912144813992515e-07,3.3954374688261849e-09,5.4696750960776601,0.00096330609173251658,4.8165304526422198e-06,2.4081448190801559e-08,11.427562180750559,0.019687262319497228,9.8436311474446879e-05,4.9215694952475822e-07,1.337389319212686,0.0003495575876958731,1.7477879362947394e-06,8.7385027563358801e-09,5.2531258099882452,0.00067291660859995642,3.3645830387942628e-06,1.6822074090266803e-08,9.6771796438114261,-0.0024067457513933356,-1.2033728741925269e-05,-6.0165635427854947e-08,0.99683953501741429,-0.0011009309658557137,-5.5046548223980926e-06,-2.7521898017089611e-08,5.3329490078161008,0.0023224867379774126,1.1612433675372243e-05,5.8059265413590544e-08,10.377086403099364,0.0057817012804304247,2.8908506366018294e-05,1.4453530506483824e-07,0.88894085539625012,0.0012718423862258682,6.3592119231807223e-06,3.1794469892408993e-08,4.9272280571380467,-0.0026255333171994436,-1.3127666569588452e-05,-6.5635051095387495e-08,10.085903925470905,-0.0029623370979392221,-1.4811685471182426e-05,-7.4054724619681153e-08,0.97046256334746916,0.00063727349603267267,3.1863674761806025e-06,1.5931040828861571e-08,5.4470402607955819,0.0034851027835820841,1.7425513896129616e-05,8.7123213319982085e-08,10.286651836506591,-0.0032183371183909792,-1.6091685571841293e-05,-8.0454405138949522e-08,0.52901348283602656,-0.00023838512029937748,-1.1919256000070546e-06,-5.9593300335335967e-09,5.332828437410785,-0.00097068961897338877,-4.8534480888004359e-06,-2.4266027142645049e-08,10.2528829176601,0.0043190379302005637,2.1595189624010175e-05,1.0797054959257125e-07,0.094962207353257444,7.6291359769976565e-05,3.8145679837308557e-07,1.9071886324338063e-09,4.6817601117759473,-0.0030018284583347857,-1.5009142272913436e-05,-7.5041959266603847e-08,9.8306898008622703,-0.011795332244920536,-5.8976661150885524e-05,-2.9486856232631131e-07,0.021716056381324629,-1.5085117699916781e-05,-7.5425588405306619e-08,-3.7710908657220452e-10,5.1140601581289653,-0.0036997183241799115,-1.8498591597777471e-05,-9.2488333572208744e-08,10.476053043177702,-0.0066120896316767663,-3.306044811706033e-05,-1.6529397588650732e-07,0.93007800376855021,0.00094348546964223611,4.7174273423146907e-06,2.358595741370277e-08,5.3090110856572368,-0.0012706815570829233,-6.3534077774732532e-06,-3.1765450614835526e-08,10.199837866596603,0.00396639107706545,1.983195536053854e-05,9.9154819061739618e-08,0.55391238829183143,0.00046405769001199777,2.320288447159773e-06,1.160086219268923e-08,5.7305688097374414,0.00062801044447090011,3.1400522184296307e-06,1.5699476118342239e-08,10.485861284895314,0.0083654001128519659,4.1827000511978688e-05,2.091245463325768e-07,0.097019234022119261,-4.7523119563464671e-05,-2.3761559752031865e-07,-1.1880185866722598e-09,5.6692664887587156,0.0058325026823717119,2.9162513375407235e-05,1.4580527661320553e-07,9.6193653122076359,-0.0019591471484151288,-9.7957357298315843e-06,-4.8976229837666038e-08,0.029186701373488902,-3.4766274506344825e-05,-1.7383137231444575e-07,-8.6911340590193363e-10
5.4536525601873533,0.021219257286273392,0.00023599303893099505,2.586633679717715e-06,10.848350445366208,0.062447937532092934,0.00089020985346222991,1.07100417403021e-05,0.90154350580069587,0.00073940178808997153,1.5764228208315563e-05,2.0950167512211698e-07,4.8655640232611264,0.034567067860230685,0.00054328187703817706,6.7280870012892539e-06,10.19628652887444,0.0008628931430316939,-2.1168354043362313e-06,-8.0234339056880924e-08,1.0412854616577738,0.0029207678948791013,4.1053788723680993e-05,4.9170231362071635e-07,5.0632916977571547,0.034900888378638348,0.00059571470823459815,7.5399979355059265e-06,9.6587461466573732,0.03279991111639359,0.00052095159465184314,6.4703008508807906e-06,1.1049928598195315,-0.001028061339954684,-7.8251976934719516e-06,-6.8199541791595717e-08,5.2828379715341311,-0.016341462105580039,-0.00023194428918153469,-2.7866773287706715e-06,10.145953199974867,-0.0064238203599575371,-0.00011605876294711653,-1.4893053179280184e-06,1.1903261976450654,-0.0046408219334455793,-5.751011251355698e-05,-6.590570464415748e-07,5.6925721776793692,-0.027979256521917049,-0.00041670514653935331,-5.0811672809026454e-06,9.7558797835489983,0.019484203921018926,0.00032996439794320392,4.1681101133940767e-06,1.3067296196555751,-0.0042917965752467145,-6.0077608873753453e-05,-7.1859910712180877e-07,5.470255556636161,-0.0080278902185454519,-0.00014296802671740297,-1.8284058016372366e-06,10.521291829100919,0.10438935076063936,0.0015505131328387778,1.8891201095646634e-05,1.4361212649456909,-0.0071293354734574448,-0.00010171950230413484,-1.2241177102034136e-06,5.3119756529951685,0.039899617382320604,0.00061028690230900456,7.4999869363216813e-06,10.033254889769109,-0.033299351818184178,-0.00051918728732658185,-6.4153278820780384e-06,1.5510843704612303,-7.2802501595563979e-07,1.0316539752222731e-06,1.6370026144092906e-08,5.038691392073873,-0.023641148063431157,-0.00028809772408926442,-3.2802808380615995e-06,10.052188609121815,-0.025406479798709615,-0.00044195693874785448,-5.6202077456893133e-06,1.3453622849750189,-0.0061916063180802849,-9.7488608404648831e-05,-1.2079228248514971e-06,5.3492447634289855,0.0076772196546226537,8.4506545240939495e-05,9.2197656538646623e-07,11.06108490821201,0.063281401960986416,0.0008675322048561022,1.0305932844181368e-05,1.3927309156928882,0.019593560360506315,0.00029856218782819727,3.6651060357609221e-06,5.4334561303216748,-0.010407095767753297,-0.00019876239126134546,-2.582770284338387e-06,10.707783351016351,0.047419999241645396,0.00071096744434078916,8.6864831563260705e-06,1.1054142481185378,0.024227119743851465,0.0003544725026648178,4.2992322960992635e-06,5.0493304298152681,0.01422799176126757,0.00019469166588577779,2.311430392940839e-06,10.034731430915732,-0.094053495198117509,-0.0013535198258374927,-1.6332576924006298e-05,0.83133830782283191,-0.0092734276353631188,-0.00013569945968354723,-1.6459016871073577e-06,5.3357202290574977,-0.0076047372216662672,-0.00010130332704649606,-1.1917867597495349e-06,10.517906733359121,0.0071984489033444371,2.3970788272830913e-05,-1.035084090672721e-08,1.3880520397256104,-0.0020021474334820382,-3.0418971356235829e-05,-3.7310155375015196e-07,5.3316314067883628,-0.029344459965446681,-0.000436027812550878,-5.3131101032571532e-06,10.938641430481983,-0.087691176830603318,-0.0014634542217312413,-1.8417308044407324e-05,1.3422420524659282,0.001414162207017302,1.7232907387659893e-05,1.9621178779158401e-07,5.2756992843725552,0.005627186080761566,7.542695985382673e-05,8.8926062728096475e-07,9.9318115573483983,0.053499547722277177,0.00080115660276087379,9.7849270287090779e-06,1.0929891453181109,0.020009829346749608,0.00030156401735891269,3.6900825638162107e-06,5.5366978803890321,0.047047923123920976,0.00066216851292767341,7.9341667160785938e-06,10.265738304461809,-0.018675732015906138,-0.00032684168275952456,-4.1624578794920429e-06,0.8736494293751712,-0.0020879202641652982,-4.2511074635281205e-05,-5.5986932057417856e-07,4.8518305115447804,-0.019172452463134208,-0.00025381086625589388,-2.9795164597033894e-06,9.9049495595340584,-0.042682162809687521,-0.00059255797400942288,-7.0686709018646038e-06,0.95469749559956885,-0.0028251096256179252,-4.7176289954221918e-05,-5.9379857791393464e-07,5.4984036912475833,0.014753799914887001,0.00018133352930575447,2.0715046875114022e-06,10.241633018936634,-0.013094729207560033,-0.000159747950946604,-1.819653977978809e-06,0.54255365964168367,0.0027346963026608595,4.2053366898377265e-05,5.1760098191172635e-07,5.1691470952616081,-0.036902720192320181,-0.00052750502912122111,-6.3518708337027998e-06,10.433879942899276,0.044045318239581743,0.00059943471642989071,7.1037114323685934e-06,0.090351910509427258,-0.00093600312058488217,-1.434298486693827e-05,-1.7635805569830403e-07,5.1281933436856484,0.095013230449616751,0.0014106776775792667,1.7185389345476909e-05,9.7344345922453446,-0.032901607346847585,-0.00036597393785602365,-4.0115696265830708e-06,0.022720451922187201,0.00020544924425359325,3.1323807060317942e-06,3.8459019129202061e-08,5.0778224190522288,-0.011647305893974322,-0.00013409905647522648,-1.4920221168035425e-06,9.8902612856938923,-0.1352008772005181,-0.0019034551413541132,-2.2809659584522401e-05,0.93921260518470973,0.0029468444130806826,3.3856984701527914e-05,3.7636819911865042e-07,5.1767704695114354,-0.030299665413708723,-0.00042859606211548246,-5.1437443990535098e-06,10.069584104226571,-0.024637640574385462,-0.00039623202452467227,-4.9380363632723565e-06,0.54785135289549647,-0.00086755952345626711,-1.704907105522832e-05,-2.2290037667479216e-07,5.4684029990452778,-0.056928436173920752,-0.00083405185654762128,-1.0119968703401669e-05,10.737185251896447,0.063522366063495053,0.00084411279070841178,9.9221661421283491e-06,0.09504494840714825,-0.00048084993115932038,-6.540580536728673e-06,-7.7496243867434241e-08,5.6079230982721624,-0.007647155287729742,-0.00016690964604069818,-2.2280073844236556e-06,9.8334200623903474,0.045037996754460713,0.00067380567917293781,8.2272155258455101e-06,0.031032254436923926,0.00037047552273459882,5.7206601627031477e-06,7.0494078888670083e-08
5.577708000772664,0.09845069634616406,0.0018853725865122654,3.4564134408321146e-05,10.651332346685253,-0.060793796517599301,-0.0017419025929776696,-4.032316201376727e-05,0.9109077157780946,0.0065745023909245795,0.00014038110251746999,2.6255202895231889e-06,4.9206157404334263,0.068687367662294913,0.0012719281027521116,2.0853701176420374e-05,10.27990831803033,0.053004333725838355,0.0011114488194046705,2.1509478407133079e-05,1.011931013749036,-0.015402574107847322,-0.00035027509155972653,-7.0954373828543057e-06,5.1444703133815679,0.085312455244179686,0.0016722845892956674,2.8410962995683156e-05,9.704630177560249,0.061214006851161018,0.001127734662531361,1.8233294546739307e-05,1.1442236369138483,0.023442722671049684,0.00051478953000944733,1.0064214648352538e-05,5.3791360572934241,0.043809957481706574,0.0010527096300294047,2.2120601937334187e-05,10.572416597369969,0.25955916087405079,0.0055644540580234089,0.00010864418586692619,1.2146942253937554,0.010583533125410285,0.00026763665864842142,5.6449831239249405e-06,5.4286567510609105,-0.19238752229181427,-0.0039278751962558717,-7.3154388488400694e-05,9.5618406323915988,-0.10163750989769117,-0.0022568173011589766,-4.5984957397757168e-05,1.3522804937995463,0.024140054092904675,0.00054713685173179429,1.1054152163434235e-05,5.4015972031210264,-0.050794844792840174,-0.0010563142524873375,-1.9535914660204322e-05,10.389241719602566,0.021406918681484727,-0.00022185508782590819,-1.5474955566918796e-05,1.4745891629919177,0.016902826159507299,0.00041153621964974192,8.7270691405184343e-06,5.248469163743315,5.4015437438881264e-05,-0.000240736641377281,-9.0010247060866425e-06,9.9258702796532745,-0.10006229359322692,-0.0019449727032329416,-3.4057066117420101e-05,1.5499342978576467,-0.00071790253269452919,-1.4284840850310247e-05,-2.8058778511127738e-07,5.0900961893872756,0.0085596197640665159,0.00039963122895600434,1.0053973845458754e-05,9.8293206465042839,-0.16423369789294051,-0.0034068017449160287,-6.3101226417156119e-05,1.3143817222610708,-0.025473555351934189,-0.00050927752092802525,-9.1914100152894703e-06,5.1056190280348179,-0.14429568134393908,-0.0031611329057314977,-6.2004328394874077e-05,10.738942038215633,-0.13799400450332194,-0.0034311165326537736,-7.3037827974761695e-05,1.3813806381536875,0.012396277607082814,0.00014482529132392737,6.8376019999232775e-07,5.2969321208259101,-0.095481032262072704,-0.0020156392502544062,-3.7807692529645018e-05,10.618160472823334,-0.0087577686223766424,-0.00048886593478767782,-1.4577447989446461e-05,1.1209741105466908,0.033782757560240517,0.00055851610917671845,8.2543753700458401e-06,5.1219655661697931,0.059436733739418345,0.0011601800508703798,2.1029772460930796e-05,10.278692581523121,0.058654566078519391,0.0019079371080076262,4.6903383570258612e-05,0.84646311426117249,0.00021493159366036893,6.6952541493091094e-05,2.2834137212245621e-06,5.1483552154331633,-0.12439980723458621,-0.0025956439384901817,-4.9551576732766938e-05,10.439052461757731,-0.04202000387326639,-0.0010271752396134562,-2.0389860672479281e-05,1.4015188374854648,0.0064079773603306339,0.00014919580681130979,3.1093237584114691e-06,5.307970498713102,-0.043920839573126473,-0.00074729031708174634,-1.1346805652468903e-05,10.816030445956104,-0.16361956388999876,-0.0030849011014688738,-4.9850183826556399e-05,1.3455763086366432,0.0034847691538977439,6.1452397238409234e-05,1.0534966996778391e-06,5.354419969852211,0.054683343890458577,0.0011230944726060364,2.1201158960552182e-05,9.9922564146201829,0.090867535963349566,0.0015991380348862293,2.5254212447733063e-05,1.1055357621408082,0.027712168279496026,0.00046603259438459787,6.878067109086772e-06,5.5047872853253041,0.026861572393069442,0.00023099379232891963,-4.269430004961413e-07,10.335684889401396,0.025056409202388538,0.00060715812057426368,1.3946641934129574e-05,0.86375412293919451,-0.0082460717353728293,-0.00017402502129841853,-3.1095397404764308e-06,5.0166838136782488,0.083747678068531436,0.0019442417817324472,3.9636681464818641e-05,9.6053574343290986,-0.22924860898154459,-0.0045769346347658661,-8.4315988221912255e-05,0.93799633568272456,-0.013222864706921683,-0.0002692332699723018,-4.8989015034535098e-06,5.5032416026074689,0.017680541074133718,0.0002438208743505033,3.2826013303874355e-06,10.196476806764768,-0.041174235817503346,-0.00075941595861211877,-1.3445603275713375e-05,0.52549466041906623,-0.0079199902082027519,-0.00018549874895851739,-3.8942565530812681e-06,5.1547180485507011,-0.04567585687903479,-0.00071482061052502638,-9.9822947017714533e-06,10.478308727509518,0.071482572912562853,0.0011853453129365436,1.8461908979893967e-05,0.089382667003608238,-0.001534732833092794,-2.7128540344074221e-05,-4.2420890742024938e-07,5.1509151509478581,0.10860418740914016,0.0017008054224568808,2.2807024547583977e-05,9.7842512791066998,-0.001634218619481792,0.00030183049287446108,8.9365322346512529e-06,0.023456063211219971,0.00066292907853027748,1.2902328669490701e-05,2.278703160749762e-07,5.0967364662468251,0.00021885678883190422,0.00011933603523314482,3.4218408304245025e-06,9.8568138080141505,-0.15523470117826554,-0.0023311318773222393,-3.1096990150671376e-05,0.95664261966154318,0.013798223838237766,0.00026560252726660411,4.8693541410364003e-06,5.1933697552712861,-0.019763615325505246,-0.00020354132565524673,-7.7940888879216443e-07,10.148784823278755,0.024901898217138174,0.00066180134587821046,1.5575963949886586e-05,0.54039466290351112,-0.0055123375468533126,-0.00011624451345434539,-2.1460482676893045e-06,5.4485355658229651,-0.068971144901631157,-0.0010911667216778318,-1.5102923401007258e-05,10.726178933821625,0.056271074871257515,0.00068916850802722954,6.9161985140450946e-06,0.093135829346265478,-0.0016684499211786234,-3.1903104688007743e-05,-5.6920724702406475e-07,5.4926010173020758,-0.079516387890813306,-0.0017017816457094226,-3.1985516998498441e-05,10.039884925458166,0.17351607265820662,0.0034176041276318308,6.1422104544816186e-05,0.031397014640077305,0.00059568800555206557,1.0529925333297599e-05,1.6372195354083163e-07
5.553471692127709,0.068061213771482304,0.0010312130624828496,1.0933893757125565e-05,10.486289448043177,-0.25906699986967413,-0.0073134945521387907,-0.00019438721648613408,0.9315256174626555,0.031355215105584151,0.00083673108709825109,2.1881456898338607e-05,5.0547753315651942,0.2296253517804171,0.0057942999037142919,0.00014590830648642653,10.021176307406098,-0.25957160254556388,-0.0076723495419024528,-0.00022140110921938915,1.0257552396335265,0.0014472375580774476,0.00012324920653932207,6.0012298354254402e-06,5.1333465970020553,0.070888845201449655,0.0012667806468052143,1.718941663932621e-05,9.9132744765326777,0.31204535954280227,0.0081762156884208539,0.00021314492415985622,1.1256573565576866,0.00078020932531972648,-0.00012209413225022976,-7.5507665291723795e-06,5.3100136493987451,-0.040047266711988112,-0.0013038381383984111,-4.3052811029825933e-05,10.635156571648238,0.33212933416908796,0.0076032722129689822,0.00016499503395310435,1.2086899015784853,0.0032192990423075742,6.0675438940000772e-05,-7.9824107794526174e-08,5.4581251939984359,-0.15457748844196351,-0.0028650025333260502,-4.3741782944149943e-05,9.6675638962349382,0.027033867177675669,0.0013591534094564072,5.4022775613733618e-05,1.3657190334454294,0.040057015204984087,0.00099437639088273649,2.341892916450733e-05,5.4241010634873392,-0.023060475423834517,-0.00027684881740372186,2.0246012272678136e-06,10.273942023059519,-0.11786788494795143,-0.004135710828565094,-0.00012370331977822933,1.465070843531421,0.0052270790484675797,8.3407486636461511e-05,-3.4932204750370023e-07,5.1426968407656997,-0.12747656742371799,-0.0038244978211338858,-0.00010810283892771002,9.8724942925323518,-0.16322953899941339,-0.0037198303844204082,-8.3129053111287107e-05,1.5884304753235561,0.045704669193194818,0.0012902377557741233,3.5794383374662585e-05,5.0917508034012959,0.010455325351588224,0.00045289070543028738,1.1524015828505456e-05,9.7183160576547465,-0.2961234062268786,-0.0071127100048717293,-0.00016556590023112896,1.3070096302192702,-0.034059869827808224,-0.00075051046249222965,-1.5859854795680519e-05,5.1710334646571896,-0.063718505871562137,-0.00089656412875386768,6.3655326648207912e-07,10.459949914618353,-0.47273947528141735,-0.012837570150600755,-0.00033314099956264961,1.3865940038975084,0.018533906798391137,0.00031726504102237615,5.4521704731409336e-06,5.2385912760302364,-0.1646902435050312,-0.00396029994748524,-9.1574326218366123e-05,10.61591863427625,-0.011359977037136032,-0.00056199901038879419,-1.6595817871648275e-05,1.1349058006280193,0.050178152974065887,0.0010191689463328083,2.0990854107577121e-05,5.1357618987505589,0.075365607600502038,0.001607681821185596,3.3399042497963031e-05,10.20803486048691,-0.027224230414111074,-0.00050541142867649089,-1.9847634903147771e-05,0.83409436169451301,-0.014699747567485343,-0.00035216106587862306,-9.3072651650904068e-06,5.2176308109287133,-0.039401570135656802,-0.0002068732402141912,1.6520505573414016e-05,10.305412712224083,-0.20265031573436076,-0.0055409652781281673,-0.00014520727665533935,1.3821151409029704,-0.017062441480606389,-0.0005103576235385883,-1.5130637395438072e-05,5.4759527729577178,0.1591340877769275,0.004958855801631688,0.00014645245960373131,10.68732315955706,-0.3168572587977958,-0.0073906674195136114,-0.00016890682466071528,1.3621084988123953,0.023375890287544436,0.00062040635682729329,1.6510357780728736e-05,5.3416828913160943,0.038678365725312039,0.00067323472075457385,8.7550035581190314e-06,10.085751246419392,0.2025126777289184,0.0047362829793917869,0.0001120009348420584,1.1056382838083862,0.027506289166840992,0.00046018499345355524,6.7144571899102024e-06,5.5737867512683206,0.10973125644374331,0.0025596468527262638,6.3969078612713124e-05,10.28212603973242,-0.039814470761514051,-0.0012158106260377758,-3.6469069465663384e-05,0.83567727926236124,-0.042000059751772734,-0.0011225285356437115,-2.9338323859018036e-05,4.9541841585445674,0.0074027136410563382,-0.00020127925515219186,-1.9705902666710389e-05,9.5702369732507471,-0.26887412830279545,-0.0056900088269177017,-0.00011507330604429299,0.92977359481009936,-0.022980107074879307,-0.00054339500970174777,-1.2479136857690974e-05,5.435584659747752,-0.064102805739817373,-0.0020544098821504929,-6.02729203158204e-05,10.251961285342984,0.026211151735435007,0.0011342607993480394,3.892530862512338e-05,0.52537471209510189,-0.0079709637504215558,-0.00018691796729936326,-3.9324263033149659e-06,5.0655120122867396,-0.15268616136359078,-0.003721817727176445,-9.3134169661598741e-05,10.509098964941245,0.10775566795550498,0.0022045076026659632,4.6640425097914512e-05,0.090304899480404155,-0.00040458160441555709,4.6332382729974947e-06,4.5423951423322354e-07,5.1202920208772653,0.07038999044837968,0.00062669779216841296,-6.9023466446796349e-06,10.025793939576001,0.28961155790014076,0.0084861369849249975,0.00023526052427475999,0.02355954511297606,0.00077983055833552703,1.6186031613538488e-05,3.1861388045932353e-07,5.2889738521560572,0.2319941103159,0.0066324566077385749,0.00018353286199910505,9.9309505349545084,-0.064001096638335989,0.00023296916477793476,3.9818523795847032e-05,0.94069313028585344,-0.0055954731964139234,-0.0002794059957845363,-1.0203501727685137e-05,5.3072454214355949,0.11777022173910401,0.0036613485073033521,0.00010609936109435682,10.202104437193201,0.088894613914446516,0.0024600313792828375,6.5299393976458824e-05,0.53656586222942848,-0.010063339049982453,-0.00024412106688250708,-5.6817163212138457e-06,5.3798285294335217,-0.15098909668561433,-0.0033957988003276373,-7.8830381092866685e-05,10.834576779917601,0.1862925545754047,0.0043427795582816758,0.00010795019754351981,0.092490466481327249,-0.0024267517749744279,-5.3208882689914857e-05,-1.1582337114618047e-06,5.3848705740155687,-0.2084629959278726,-0.0053251538144332726,-0.00013217636607748274,9.9003761768588774,0.0032551372907564102,-0.0013672472306414016,-7.0913787442315567e-05,0.031366206505061035,0.00055146584733557096,9.2859157721675316e-06,1.292751948946783e-07
5.5639455576728922,0.086998330454787137,0.0016912097836290036,3.5307017550241811e-05,10.487992172701924,-0.25084182064057903,-0.0070261154498921273,-0.00018370099204595268,0.93201839613596371,0.031709884282403823,0.00084902375786280232,2.2327408131304961e-05,5.1339331838804458,0.37822909488222123,0.010974842276421898,0.00033719918665273683,9.9155812062186559,-0.45870906772832892,-0.014614861787500162,-0.00047774295267849097,1.0462377014541464,0.041005860680755069,0.0015024867463259641,5.6941534979085157e-05,5.1744657211240686,0.14900011977870986,0.0039898784291809448,0.0001177614408090952,9.8685255818680275,0.21961178090116446,0.0049527780945768946,9.4007635419399927e-05,1.1407687938955759,0.029968997989323239,0.00089554678321346554,3.0038872303124189e-05,5.2565854084706238,-0.14254414844793448,-0.0048773914012308558,-0.00017502709192894662,10.475140301605373,0.016530757816685226,-0.0034011460978698302,-0.00024151715500157994,1.2332385945804123,0.050601644733214372,0.0017126498851223932,6.0936340500077577e-05,5.3937628791435044,-0.27600807311419162,-0.0070981462961163377,-0.00020007796773428469,9.6948152152111486,0.079192045768698066,0.0031777265843500949,0.00012117232760583584,1.3468782520900593,0.0028801201616904595,-0.00030191716312713123,-2.4468683238284265e-05,5.4598452385689997,0.046463340025281928,0.0021472317922586808,9.1557944216020208e-05,10.279160607637664,-0.10554519538459134,-0.0037058723103602239,-0.00010778142452489403,1.4531583251700579,-0.017895811061679912,-0.00072280997715247247,-3.01270590344396e-05,5.1626549646022246,-0.086478763998634814,-0.0023948473792096163,-5.5258374582979088e-05,9.9672010786996807,0.022923073076972195,0.0027708891050776379,0.00015663817844480842,1.6093882512037916,0.085338125285321004,0.0026719753706331536,8.6816025301665199e-05,5.1404867292361667,0.10444709652893908,0.003729892780941707,0.00013255674148357718,9.6683850091984684,-0.38696993393739038,-0.01027927063124669,-0.00028246254448131326,1.3266991925680025,0.0046439312234043476,0.0005990095744155549,3.3990900575315464e-05,5.083892352127517,-0.23090895701073791,-0.0067253787731000499,-0.00021465257010819152,10.419367066976964,-0.54216256720294831,-0.01525687722564165,-0.00042237573196232415,1.3846767063854715,0.014473394388090447,0.00017563823734985056,2.1913135814063434e-07,5.2618021617258046,-0.11668813403324421,-0.0022862301574851657,-2.9708270199468601e-05,10.402383023188781,-0.42383499354634119,-0.014943005477958394,-0.00054775615740008899,1.1156982002999731,0.012096965799466383,-0.00030868588167397011,-2.8061585902439112e-05,5.1258413643994869,0.054752086612121678,0.00088876007301448589,6.8331319678378218e-06,10.328666461191307,0.20643523551806778,0.0076411574548830193,0.0002810554808863983,0.83327187459438412,-0.016008718733492473,-0.00039776892181457362,-1.0988366330704821e-05,5.2566020704503211,0.036675570402759226,0.0024458110951320741,0.00011449203657890454,10.383314566515912,-0.048231881908823798,-0.00015665095571290241,5.371750143517363e-05,1.3912772164509282,0.00096931984684863262,0.00011835054683842082,8.096462089365783e-06,5.522714730926241,0.24648207051933974,0.0080039986968089456,0.0002588715658220068,10.498394789820006,-0.67593860926510319,-0.019909233432760562,-0.0006312211520882779,1.3568043055291321,0.012679127500872701,0.00024741002653673732,2.7275365483392424e-06,5.4524805040767461,0.25207021182847478,0.0081130434083526871,0.00028354317069230906,10.064216855458831,0.15702735274081311,0.0031498951424618507,5.3365891495138516e-05,1.0961445520181554,0.0086312133107038815,-0.00019799218658428142,-1.7597979814315052e-05,5.5014981313544462,-0.032072507288158913,-0.0023846268874082306,-0.00011867267276415368,10.204030007362114,-0.1899891172877132,-0.0064516250078028485,-0.00022984185832853208,0.85429777767314841,-0.0052126111579370721,0.00016017237509399805,1.8049426833056648e-05,4.9922701262611113,0.080864389387394708,0.0023598521463561689,7.4897475616585e-05,9.7011659672697714,-0.010694543887365571,0.0033123151678615802,0.00021747253439195866,0.9313620420375156,-0.019471456675070331,-0.00042100041884776088,-7.9538494367189278e-06,5.4742277620723065,0.011799209800276725,0.00059204502730116635,3.7496888978782428e-05,10.416549687907786,0.34380713095711918,0.012207311508329492,0.00044789713572773038,0.53116794761248154,0.0033775158749870388,0.00020877524138500188,1.0684064744306917e-05,5.0978218702070732,-0.087328583665407036,-0.0014427442820334228,-8.9215594241525011e-06,10.421676507250117,-0.063261801578359991,-0.0037583581569986912,-0.00017361690512126762,0.091263837967840281,0.0014565732088980138,6.9525755844082062e-05,2.8508949046646662e-06,5.1532766281754387,0.13278341489104989,0.0028017713990989021,7.3437150711539801e-05,10.081376567318017,0.39152005049242444,0.012038593541728893,0.00036638460002270446,0.023465168544819656,0.00058252288798099551,9.3043965151452903e-06,6.4321095308513736e-08,5.4242013244508822,0.48892316949413728,0.015589870037183368,0.00051430962720982304,9.8107550584259773,-0.29505732179434291,-0.0078225424676631548,-0.00025772874342922729,0.94230597145087769,-0.0023730470661529361,-0.00016705996802508452,-6.0502012884792738e-06,5.2858274511702108,0.074137023808314634,0.0021398512798683957,4.9863250199833481e-05,10.084791854216199,-0.13952287309493738,-0.0055040017458282842,-0.00022887850059583254,0.5315166193846218,-0.019629673098654654,-0.00057762520135999119,-1.7997685625222094e-05,5.325002136707579,-0.25406471763755745,-0.0069891582856878662,-0.00021152299577875501,10.603765289695314,-0.26334198724314184,-0.011334267139678639,-0.00047112574937972014,0.092595554794434459,-0.0021772795968995678,-4.450400664399779e-05,-8.3628889946049752e-07,5.3417033859241458,-0.2879138298947545,-0.0080946903514358855,-0.00023442114780186993,10.030969437674463,0.25556938136687229,0.0074295146993086343,0.00025402325057892027,0.031444794686081939,0.00069278315345487,1.4211031178723459e-05,3.1113795258891882e-07
5.4830135637638948,-0.13828942191730109,-0.0077019308030413158,-0.000408643777828567,10.544753080244607,-0.087667613725468219,-0.00022189740897996316,0.00013796351996519287,0.94139517068996603,0.056671018670086344,0.0018895827603402071,7.1495256745951436e-05,5.1607952334456115,0.44190515118355889,0.013628445892204428,0.00046245316353897396,10.023857576199847,-0.14799719535916617,-0.0016592193486879292,0.00013478619985882493,1.045053481122961,0.036629612623067749,0.00131997330857229,4.8288760918151028e-05,5.0432360974059023,-0.21650572213833594,-0.0112494256972058,-0.00060252690322476856,9.9744667454060227,0.50540211985124817,0.016866939933783447,0.00065704461296480865,1.1342634385158348,0.011234924162824639,0.00011440511910739597,-6.8932674916472302e-06,5.3639599728168879,0.15707193574013803,0.0076146076718064471,0.00041544650193681636,10.469643882121987,0.0009032984374029579,-0.0040536891301605907,-0.00027224318638218689,1.2476855815799153,0.0890156844938641,0.0033141188249121291,0.00013659539858735671,5.3441202541963531,-0.40520510098193435,-0.012483722232638042,-0.00045451391671912555,9.8184814917922161,0.41765209594238389,0.017288827068766232,0.00078802712807184616,1.3348565934411214,-0.030313034729364904,-0.0016859384182280671,-8.9868068232989626e-05,5.4438936272858864,0.0012698108289714155,0.00026302497269491761,2.4641928389521045e-06,10.239350384010457,-0.21232271267530436,-0.0081572164533747528,-0.00031810777896542708,1.4531037572738252,-0.017560337331494091,-0.00070882312104929757,-2.9451780438234e-05,5.1682555804365675,-0.06869494217005831,-0.001652951055320988,-2.0169110128935339e-05,10.167382798148617,0.57367281969409567,0.025733382044388152,0.0012418064853845,1.5899309365707168,0.029423415121327637,0.00034051053200657468,-2.341357912099034e-05,5.1651703791625376,0.16959248355496975,0.0064457309260179257,0.00026084873399908682,9.7865103989057438,-0.051064356247919385,0.0037269027874476564,0.00037962400726966714,1.3327003377457058,0.021050686509218115,0.001283136776378627,6.6307727910062101e-05,5.123966819937424,-0.11423968931408873,-0.0018604983826450445,1.5370523480940707e-05,10.369353072054725,-0.66513231797981642,-0.020381643939351143,-0.00066438037914744457,1.3913374297418397,0.032421896978464461,0.00092388346055390785,3.5582234935938731e-05,5.2401237933003069,-0.17320478165802522,-0.0046418890220748278,-0.00014102624992810928,10.229128040088147,-0.88949921843975499,-0.034356913802573358,-0.0014650281106341337,1.1092884020102429,-0.0058935543465876358,-0.0010589058136159647,-6.3504858450798816e-05,5.1976077819787241,0.25091666295778298,0.0090670310379460887,0.00039334742543468607,10.368488403232424,0.31050506750903251,0.011979703346884446,0.00048596892649200056,0.83773624990496931,-0.0032756407376910487,0.00013315971646795651,1.4109321793332732e-05,5.2939598447913054,0.13858281530064098,0.0066946943053538179,0.00031524660790586154,10.146241769514777,-0.69986661730182542,-0.027324268644099071,-0.0012302908133829476,1.376491207499039,-0.039780817123035925,-0.0015805891106714521,-7.2201836298289458e-05,5.497581537482799,0.17054873933889189,0.0048374065276985427,0.00010909125767574241,10.485930839800941,-0.69184687957605118,-0.02057049775723483,-0.00066217518496493625,1.3653236891220724,0.035797002286873866,0.0012111739704056168,4.8275197104430103e-05,5.3838500593308805,0.056181029364245738,-5.4595633785185088e-05,-0.00010260587819134497,10.135288865368533,0.34848471443489792,0.011131433511181945,0.00043056031119411889,1.0916640975234908,-0.0039488318743724528,-0.00072257793549326149,-4.2382382998694054e-05,5.495738839714039,-0.047075291938075622,-0.0030103213497374376,-0.00014818785806887557,10.241185798112246,-0.082483005898306608,-0.0019690446476654886,-1.787966686641129e-05,0.86780183525256305,0.032126309995582997,0.0017170355187290072,9.1620616167396938e-05,4.9766009219442902,0.035503283766145845,0.00046840344592235877,-1.4530664072668299e-05,9.8685273989966777,0.45059065003886417,0.022545198121688835,0.0011263450503712505,0.93487676631077932,-0.0092588265163214608,4.8847090934188322e-06,1.2177888484827627e-05,5.4331276711878722,-0.10172052845188986,-0.0041407379553995991,-0.00018619935376374341,10.354102061846859,0.16246078584624829,0.004645934546151728,9.0323278532811733e-05,0.5299766445600782,5.383710760406557e-06,6.8202712486225544e-05,4.0353438013894201e-06,5.061902517341955,-0.18386901603038608,-0.005467234882283822,-0.00019912088897174957,10.34504614903781,-0.2726168947905534,-0.012487044594293902,-0.00058606584630883939,0.090185795560266152,-0.0015520748012658274,-5.5912502974986885e-05,-3.0788553436542006e-06,5.2738085631411105,0.4611308942300173,0.016490933965347131,0.0007203730838733429,10.111338519828818,0.46337848931718284,0.015033188662917323,0.00050774056054708934,0.023245902550156714,-3.7346529205060149e-05,-1.6542687148919137e-05,-1.1572817847376513e-06,5.3604066848311964,0.29990327109566306,0.0077078178909951497,0.00014154878559831456,9.9102595770546245,-0.012945870716590091,0.0039400473921002814,0.00029831094782627426,0.93897017406187078,-0.011497009425955105,-0.00054745075069666379,-2.4025188739715738e-05,5.3002505261195907,0.11184118902143261,0.0037114350233316846,0.00012411512177167979,10.164164927230512,0.082880249279491308,0.0037685260087312053,0.00020946343374206967,0.53018016073890128,-0.022775680292503583,-0.00070872892459485017,-2.418534098137346e-05,5.3492259862244582,-0.18041710454500332,-0.0039178129278793026,-6.6266574435467745e-05,10.633200445983706,-0.17512839211808401,-0.0076564148486259866,-0.0002970821958165862,0.093048012098398789,-0.00087156254253646886,9.9446727761431437e-06,1.7374337356209583e-06,5.3803442676928626,-0.17363647948338334,-0.0033291614935874979,-9.084215802129445e-06,10.062324222433437,0.33496303309675762,0.010739069234128703,0.00041031777564857379,0.031215084105430491,4.1158106000735223e-05,-1.2959599160685688e-05,-9.7313440551797465e-07
5.4812184057642908,-0.13985277162810184,-0.0077782874509413251,-0.000412883874026359,10.621190850184311,0.19132802484395184,0.013345450085373486,0.00093387941175634634,0.93476499536427859,0.030718812199815766,0.00062748086066334607,-2.594259870788526e-06,5.2434825741848643,0.72447885969315617,0.027366282684614978,0.0012681812912461756,10.187175722973347,0.44667892932761533,0.027258416481782993,0.0018313060032864037,1.0445812960945304,0.033616823716447412,0.0011733206634608636,3.9656313166885762e-05,5.0587670702035537,-0.15275811636439324,-0.0081503214063116149,-0.00042034882433832202,10.121559492735594,1.0181303800148371,0.041796162910938406,0.0021192576611585834,1.1340909409673241,0.010208145786454084,6.4354590136818686e-05,-9.8256898003115904e-06,5.4112703441525793,0.32220336934693256,0.015644395447765302,0.00088631073810371786,10.560264380994047,0.32784507077438224,0.01184274920894424,0.00066056122942790467,1.2532615990996936,0.10595768587463904,0.0041376594326586452,0.00018483241931083078,5.3789710257780143,-0.26494252945794006,-0.0056620807944772625,-5.4021269704576994e-05,9.9195681344593432,0.76753289773498312,0.034300873391645878,0.001785662249106802,1.3345355366368115,-0.030394283979650886,-0.0016899677678192486,-9.0051744706527045e-05,5.4246355384873395,-0.06826839236025628,-0.0031182979865176565,-0.00019591960987675475,10.308681513394671,0.045448194481015641,0.0043774003570657399,0.00041748533837890356,1.4548276076234892,-0.010712908294159947,-0.00037582410015042102,-9.8974348257875525e-06,5.243852425828627,0.20656741610355495,0.011731984626594756,0.00076513744960932985,10.135835451664011,0.4393818255788704,0.019203530588628958,0.0008579712637550121,1.5849826460615659,0.010508522075913802,-0.00057960527379650453,-7.7383074503201976e-05,5.2437713452087591,0.44717621826470161,0.019942412618111742,0.001052546563462077,10.019372864244421,0.79112517825439288,0.044679438532200466,0.0027820882368011736,1.3284066869158588,0.004809533711864513,0.00049346734308972778,1.9938887036255982e-05,5.0997744404367111,-0.19743639357744536,-0.0059047895691088422,-0.00022191722452182252,10.261186557092609,-1.0316613933066754,-0.038200454488945906,-0.001709420934116227,1.4061917691908763,0.084864532885840532,0.0034737562546462088,0.00018516250044071339,5.2957164528762473,0.033612236853118566,0.0054152113175246763,0.00044910698045237305,10.265323225981113,-0.72712371907850437,-0.026459522317218303,-0.0010008282950498158,1.119095967960879,0.029700416736302505,0.0006716924088462084,3.8066668706688111e-05,5.1894656247310875,0.21256922531668163,0.0072019522505028539,0.00028369239923367151,10.26410624663276,-0.077256861165619972,-0.0068757663232712051,-0.00062056737209203951,0.84424005971548677,0.020313596523812909,0.0012802371025522736,8.1400121229247723e-05,5.2749248667859883,0.064957810919270012,0.0031146548053858926,0.00010502058800630716,10.131746627871602,-0.72718685933158544,-0.028651699566391582,-0.0013074494280189348,1.3799721832283613,-0.025799316629621094,-0.00090070711340377568,-3.2270770731758913e-05,5.5294538224383087,0.27945650305008118,0.010131666916998005,0.00041964172839831221,10.408076567981928,-0.94802867078483866,-0.033023677435391433,-0.0013924152499937188,1.3812152009554064,0.091863417794286778,0.0039372363237108101,0.00020818506432262958,5.3460230078918585,-0.082350005421466532,-0.0067915161986640254,-0.00049780108567620785,10.182576030465325,0.50665959637153013,0.018821407590868956,0.00088147879655797647,1.1005862409128673,0.028383119197041728,0.00084945573983728848,4.9873763097328967e-05,5.4900771118372615,-0.065837072014836767,-0.003922610337303842,-0.00020162494858276292,10.198392340200053,-0.23395082128425856,-0.009333224200533681,-0.0004499258938568735,0.86838875882477506,0.033101840545641532,0.0017645507270870316,9.4354581541246756e-05,4.9810851381091563,0.050408501620810939,0.0011927804690333283,2.7977090788170323e-05,9.9761392167198402,0.82288128205851063,0.04064772463475258,0.0021877601977136384,0.93714674516343188,-0.00073319072789087593,0.00041955387570498755,3.6499400758614381e-05,5.3570753003874252,-0.37253397022273471,-0.017308595962579471,-0.00095864888094185645,10.28628180266557,-0.088093144725879036,-0.0075383345745991832,-0.00062458128419985107,0.52932761360857983,-0.0023362412974943154,-4.5649082785501581e-05,-2.6467132438185983e-06,5.0656395610273437,-0.1638020536560181,-0.0044908329445581497,-0.00014171852285267526,10.363808862586303,-0.19519450945821587,-0.0087222526310686034,-0.00036484150203909234,0.090040054607234882,-0.0020225381387286492,-7.8791866668412652e-05,-4.4193821860815023e-06,5.2667626394628773,0.41922643826544276,0.014452558689465992,0.0006003588794858451,10.124442337815994,0.49409119392256018,0.016524327056603543,0.00059492781978758924,0.023340640915779826,0.0003057126324888119,1.3466617069807167e-07,-1.7814180241976862e-07,5.3550982274241798,0.27000045993337612,0.0062514934346356134,5.602312316524336e-05,9.7434195893192292,-0.61450072334860517,-0.025308838232726685,-0.0014178973929234407,0.92688668779192718,-0.054692113227244037,-0.0026477398208697,-0.00014723513921021856,5.3241212514244936,0.19398190305924962,0.0077048743499805086,0.00035833755278394554,10.225787603094705,0.30229874451963246,0.014437774057125229,0.00083530576291234501,0.53434797376874776,-0.0069207364008668608,6.2303341447863462e-05,2.1065343302481694e-05,5.3940960301116618,-0.012026463375635482,0.0042712418353526996,0.00041422448367970765,10.67589867256588,-0.014802568129236943,0.00014000718667170169,0.0001605085036353259,0.093335811574415228,0.0001985430446395319,6.1989930834983791e-05,4.789911811650746e-06,5.3770628429660325,-0.17924469213236324,-0.00360032680183341,-2.4988165867334196e-05,10.170600506127059,0.71370804993795012,0.029154015278246272,0.001490482683213128,0.031215156050929151,3.9805187402865608e-05,-1.302881087365428e-05,-9.7662412120647533e-07
5.4953730056850656,-0.070992924627950482,-0.0039421803111449917,-0.00013942193443988634,10.530448532798202,-0.21921763901648905,-0.0095224762058524239,-0.00069520310234892527,0.92658040465502545,-0.006913053644012828,-0.0014692127274485009,-0.00015189727255406548,5.2385984668594645,0.67098777173152735,0.024383945486772828,0.0010549069736373339,10.242811981670789,0.67374334017107929,0.039910374208583434,0.0027309436802234054,1.0441484756666739,0.030219920339407697,0.00098383584301851346,2.6134922363370232e-05,5.1555243499464121,0.28278888354623849,0.016112567457684177,0.001307702831824802,10.125540207242404,0.99105639169635973,0.040285884927751162,0.0020102021468509025,1.1355181985814715,0.01608233572171849,0.00039144772840414728,1.3473501717604392e-05,5.4203183178754664,0.34817862856888104,0.017091517219097973,0.00098872866399928776,10.460044013930618,-0.13077556488466979,-0.013705133454031607,-0.0011591654665232482,1.2454466940344373,0.066663903176020778,0.001948305586610596,2.8797634248331293e-05,5.4219804865307237,-0.062624608135107424,0.0056108413512599717,0.00074875827291283228,10.124730729211496,1.6431886463065992,0.083078835817403524,0.0052578533284904482,1.3335972946972543,-0.033222209266989176,-0.0018474588320946332,-0.0001012025059868004,5.4179975433445708,-0.094694542811827181,-0.0045906128642413434,-0.00030062315383249988,10.29273874544919,-0.027186299621626421,0.00033296348520682559,0.00012918503047977688,1.4559471292776938,-0.0052797155401523637,-7.3052631890715958e-05,1.1669869668492161e-05,5.233017173969599,0.14950156615025445,0.008554192179119853,0.00053830304389349004,10.266850815433974,1.0007926856040605,0.050475324837262893,0.0030842144770638642,1.5720536159387,-0.047268090170915718,-0.0037985559691394214,-0.0003065483894067439,5.2315715914385841,0.37347833021736909,0.015836416605405267,0.00075941042440493857,10.067681346896176,0.97061433189554303,0.054680972912600878,0.0034923130910277278,1.3499016975543825,0.099873245265655386,0.0057890043083879241,0.00039701813229839372,5.0823830810777011,-0.2658266932023115,-0.0097134640928651338,-0.00049297365678049637,10.311183016664634,-0.76471016079155274,-0.023325497174646603,-0.00064896284850965305,1.3856505050868617,-0.0099077091484277707,-0.0018057036660319827,-0.00019091795579029996,5.318473882000764,0.1330428788985295,0.010955560992203423,0.00084331364895565933,10.23733857199913,-0.8191903090930176,-0.03158344336735653,-0.0013649883393823245,1.1082286160100361,-0.019776644524015556,-0.0020844669460179208,-0.0001582256386031304,5.2186162531511098,0.33242193774166029,0.013877283355596251,0.00075883851286877128,10.329590028440307,0.21634303925440884,0.0094771156308596435,0.00054435787145566748,0.84666079142938866,0.030155140136241383,0.0018285700549486535,0.0001203887654656907,5.3146185287980101,0.2380428604049393,0.012755833433400962,0.00079149095881521359,10.211625026614303,-0.34119208855028715,-0.0071466117932103453,0.00022485182192634261,1.3985224233000222,0.057555363200381141,0.0037428220294827268,0.00029841639050345907,5.579182138479819,0.48757945254940449,0.021723900816261965,0.0012448220619856664,10.410565199833007,-0.89530197472914141,-0.030082011889208598,-0.0011819486807149251,1.3879321573221639,0.11760175629650177,0.0053709024198472337,0.00031012770707740893,5.3046179508917755,-0.26228554990491498,-0.016816186507008706,-0.0012113000750729021,10.281525189001838,0.92295815042229745,0.042010033662382346,0.0025321055258203072,1.1030812649766188,0.038192069521766445,0.0013958978478054726,8.8750210740445293e-05,5.4766668952266873,-0.12239528032867483,-0.0070730685282678826,-0.00042582446257203763,10.234547270544335,-0.063423705253044749,0.00016684865159404504,0.00022689155667441935,0.86684763162271439,0.024821212892659351,0.0013032309809701847,6.1436964728647851e-05,5.0071482492186021,0.16370510719323977,0.007503688564729845,0.00047735485594406415,9.9823205710946468,0.81420393537381019,0.040163573277287118,0.0021517260421280147,0.93950728543948803,0.0097660028776074426,0.0010045524024616093,7.8130962127862988e-05,5.2776881034201475,-0.70805833878320701,-0.035999235071075247,-0.0022889204870224578,10.30041398579159,-0.021624454719542413,-0.0038376791129028161,-0.00036061406498299461,0.52519256700591044,-0.020560852448303912,-0.0010608690380733881,-7.493830727037564e-05,5.0862435776609392,-0.065262880102739215,0.00099946829286426224,0.00024934493780819111,10.385002008047115,-0.092694131512105357,-0.003011162273086356,4.2103164338114175e-05,0.091491337874667664,0.0044988399353447853,0.00028448727825669654,2.1452753137394332e-05,5.2663421460959805,0.39892272402868328,0.013319472376683005,0.00051924466265390319,10.10179782770285,0.37198629514853426,0.0097191026252308778,0.00010990638259212503,0.0233388434514697,0.00028419700125746823,-1.0657380293187116e-06,-2.6349533606410808e-07,5.3842631407956194,0.38736166501287606,0.012786286207638253,0.00052132367098800081,9.6599543284457923,-0.95745383278623186,-0.044413436861860764,-0.0027773198908141615,0.92603703672102078,-0.056059797092253179,-0.0027239249165866234,-0.00015255540913349541,5.2947664313416754,0.055350437822727111,-1.8430132017057711e-05,-0.0001918915873771934,10.236156101134497,0.33499737537891394,0.016259589754565439,0.00096444184038832438,0.53611038356732887,0.0011981269192674286,0.00051474806656781917,5.3268782643655374e-05,5.3955928455703788,-0.0048173139448885001,0.0046745959696256542,0.00044265223088101204,10.637536288372374,-0.18417819807882813,-0.0092936932623513789,-0.00051137649675418425,0.092905053146907154,-0.0017188955616806094,-4.480941747314771e-05,-2.8186454967967203e-06,5.3817112747958653,-0.15073207517634771,-0.002010249155721895,8.8258533750203724e-05,10.0632578392869,0.20658609931869432,0.00090297522906392785,-0.00052232594449646078,0.031614059215778985,0.0018059667958194474,8.5354359489527782e-05,6.0299044973030152e-06
5.3899433597810722,-0.61260282055747328,-0.038057771529283302,-0.0030371205889853006,10.491827367958694,-0.40770763587670722,-0.021396646951447308,-0.001703218143817597,0.92186472644177864,-0.03095759240255147,-0.0029844011346300764,-0.00028047007418867062,5.190408686105104,0.38730471128373078,0.0065095828352728299,-0.00046425774928205311,10.317333137538105,1.0246844989782127,0.06201875488153942,0.0046065349601291366,1.0263072937211131,-0.063601324136403181,-0.0049264394472641792,-0.00047591277550694365,5.1915855709242233,0.45481635963521949,0.026951715441709989,0.0022272815996755031,10.227688147220649,1.4684663885720206,0.070353253250715647,0.0045624510870118243,1.1449800382777435,0.064187552192092365,0.0034215432323830156,0.0002708418121561028,5.3821991563952851,0.13320051953721848,0.0035488968868765056,-0.00016243673187034771,10.322048901561551,-0.83780537908328534,-0.058244775389642026,-0.0049414286513546875,1.2450614110570968,0.061242733853844239,0.0016058800152187946,-3.1284389656633871e-07,5.421337694855259,-0.062655481456967421,0.005612847488082804,0.00074829267266938526,10.22733060933454,2.0896270749112471,0.11120077702294082,0.0076420968870361365,1.3154212498521864,-0.12552183604112854,-0.0076613750372078616,-0.0005949571918185539,5.3982846820845065,-0.1917896245828063,-0.010706866372810146,-0.00081988932357939187,10.284544126554835,-0.068156601108908282,-0.0022467250335817032,-9.0046374650300487e-05,1.4710386431593729,0.073040326206651462,0.004860586842802034,0.00043072889986282375,5.3069687704613786,0.52430345170700676,0.032163421841720129,0.0025432405961544544,10.173023871956589,0.46428914837237523,0.016679337449721804,0.0002109251416360894,1.5826061300551522,0.0097131058450726573,-0.00020991135465491103,-1.4644526528833951e-06,5.2342829868222482,0.36834005441897882,0.015510366381771373,0.00073107029609932985,10.191914142488958,1.5634364895748005,0.09202404551989804,0.006661309698074571,1.3556257714062561,0.12436736883895169,0.0073322419681227085,0.0005277652608717872,5.0800641280459278,-0.2641665348584421,-0.0096076982070277626,-0.00048357104483805826,10.368714850273504,-0.42785616751536837,-0.0020984399299863767,0.0011546387490221745,1.3886597371653497,0.0061497121044723057,-0.00079499788201717347,-0.00010490529022408599,5.2830963648402234,-0.056690221829617332,-0.00099443345979347356,-0.00017244877789733234,10.132026013221518,-1.3217700089439632,-0.063235314241542662,-0.0040523747785375704,1.10926323052538,-0.01342354128324378,-0.0016845458011958232,-0.00012412148350555226,5.147622695607903,-0.051786784703695687,-0.010325657192227186,-0.0012976313233501045,10.334057391041449,0.2283504683657086,0.010232950629316607,0.00060809697126349435,0.85771728593867802,0.085793530799952611,0.0053333531211821805,0.00041798676175504334,5.3653708378441873,0.48832856184942841,0.028521518277683455,0.0021299738414700302,10.111361044089289,-0.84214459220578597,-0.038695483225829261,-0.0024551361559286564,1.4019138953235768,0.072154722483436226,0.0046630793943350677,0.00037633061842239687,5.4949645240193101,0.027033109091597507,-0.0072877257580081685,-0.001220515829026442,10.338827490629644,-1.2202941729073813,-0.050546541209043533,-0.0029192250928511297,1.3978207892621557,0.16271249785306643,0.0082122012136254842,0.0005512074289828711,5.3827768308665682,0.15532371445324311,0.0094880237600443347,0.0010240383246084145,10.331411530495449,1.133629176852353,0.055279313958194687,0.0036570624718555555,1.1123206819174785,0.084013353239193761,0.0042822454027077773,0.00033384446616213745,5.5248449700420279,0.13302473831492129,0.0090163544909487286,0.00094119111005209284,10.374347171729269,0.66285114366790254,0.04591796738057604,0.0041128508408991189,0.86985831398084501,0.039120381405905971,0.0022037466368931961,0.00013787560247694505,5.0360126027423853,0.30458772458128086,0.016378105155652096,0.0012307524138892643,9.9246382311685917,0.47417604568092192,0.018741004737020433,0.00033024102887072504,0.93866798889469039,0.0049302010246559001,0.00070008751544049243,5.2203003356122144e-05,5.3048003551654821,-0.53157648915116873,-0.024882629593099004,-0.0013427191516681126,10.380173997255227,0.39194563984653252,0.022212427685166566,0.0018524179149609628,0.52426330410223687,-0.024313662218456374,-0.0012973440833890654,-9.4961112859129229e-05,5.131601942675287,0.17269864211509986,0.015990823494284233,0.0015225158857743574,10.496136093441512,0.48681455359065817,0.033495127906055834,0.0031429531686767223,0.09158928012077483,0.0047754699300256338,0.00030194780341542246,2.2917647771227806e-05,5.2571299177664583,0.33077947428220728,0.0090238450704336302,0.0001539281461375837,10.075788671893532,0.21833353330336044,3.5300671780123111e-05,-0.00071274011406028976,0.023318555033038247,0.00016456482699914686,-8.6034802126950944e-06,-9.0353590577307641e-07,5.4138450226612624,0.52043984806780319,0.021166203753296364,0.0012326805705542699,9.6084010050526505,-1.1749853065777105,-0.058115802703557394,-0.0039388553273324457,0.9142200370319552,-0.11430026907729383,-0.0063923738900886415,-0.00046402805083522059,5.317722185039889,0.17120636321494223,0.0072775719367426201,0.00042800211315161381,10.165359240236462,-0.048304079985277415,-0.0078856461706164095,-0.0010873011414203465,0.53590643505478364,8.6435268029595854e-05,0.0004449295012638316,4.7293067267771807e-05,5.3429088662480826,-0.27698459814987725,-0.012468079074899625,-0.0010138420592037099,10.635757643401725,-0.18394223579262275,-0.0092780876460300081,-0.00050961656896558586,0.092993647956910022,-0.0011722578547302875,-1.0375980308484197e-05,1.0856396967810426e-07,5.3870825360258605,-0.11517818188526389,0.00023148337107261122,0.00027859887389151489,10.162816168787435,0.7107897129836489,0.032657597262891365,0.0021753914011042466,0.031703714325486215,0.0021770636022564252,0.00010873672295050833,8.0109071479553452e-06
5.3651580783015866,-0.72102028816063413,-0.045709057467973969,-0.0037987283696021331,10.373120195339649,-1.0716893795206952,-0.06823587198484507,-0.006382465666180121,0.92322560047914382,-0.021313724407631816,-0.0023048209118321189,-0.00021227489219736577,5.1594680186888278,0.18577655998446529,-0.0077154517880426718,-0.0018853943982601389,10.315520908313255,0.95545801209943204,0.057137817480224194,0.0041141473975091474,1.0264283535130514,-0.059265299198359558,-0.0046218584557678449,-0.00044499839712336311,5.1259054505778794,0.048416209607153537,-0.0017125100869305222,-0.00063954752831530196,10.174094259058799,1.0737778664274,0.042507894304311858,0.0017751229571367389,1.1403129332575763,0.033478753284605492,0.0012556375440045966,5.4118041509898166e-05,5.4426181351884226,0.47538238030359115,0.027682288394744105,0.002249533027709574,10.24639514478114,-1.2279360445002436,-0.085772915175434575,-0.0076875571510753062,1.2331808323567941,-0.011083330122247777,-0.0034971386169452496,-0.00051029051042492471,5.4309993835367676,-0.0030261210123461932,0.0098226253409227568,0.0011682554493685361,10.297674145885201,2.3770352415352702,0.13147251064852741,0.0096603463742196694,1.3159527668954474,-0.11525003979841844,-0.0069373453602153377,-0.00052200559805955856,5.3601918784240121,-0.40136705931345601,-0.02549110826318645,-0.0022965558010188012,10.280010821805341,-0.090482194884776934,-0.0038208883920675518,-0.00024727281053103431,1.4589978955721874,-0.00086472959945764483,-0.00035180089430578935,-9.0609503765743434e-05,5.2930414421201828,0.41360852149602367,0.024357733501638765,0.0017606255558016515,10.145794369324333,0.27989171253136702,0.0036622797069061994,-0.0010901652428659317,1.5721354589948477,-0.051482557408321097,-0.0045265218391122566,-0.00043285006615670119,5.26196058206546,0.50743082837534081,0.025318200845092037,0.0017105006416304185,10.2846307141383,2.010680523451033,0.12357432886260433,0.0098076784821676134,1.3656732087801269,0.1754174265613449,0.010933418192579593,0.00088712688958036815,5.1307795067774018,0.044707980852927987,0.012182262639861691,0.0016945253145905705,10.295191753944726,-0.82884198921489549,-0.030370969233360058,-0.0016719736549983271,1.3839524069273004,-0.02147225363626817,-0.0027439400628670638,-0.00029957097197877045,5.2302471647067144,-0.35944432576648139,-0.022351739414605526,-0.0023066515048856618,10.21224557785543,-0.78132899227707642,-0.025108492003457605,-0.00023806262737007151,1.1220191867502234,0.061201684734503055,0.0035794673766434515,0.00040206977476010244,5.1493269720660297,-0.03901962751993223,-0.0094307495573547617,-0.0012069005511242249,10.298651410449541,0.010206166166381758,-0.0051560944753262505,-0.00093043852124648002,0.85104769751180587,0.042256668373830908,0.0022626777876820123,0.00011069639996133155,5.3938174244211838,0.62505062735385519,0.038167070007021166,0.0030917881978694945,10.089947260320661,-0.91775353884619482,-0.044026187480613176,-0.0029854146684579765,1.3938677322069715,0.021429958822268877,0.0010854256894563953,1.8416226660591657e-05,5.3982946368934943,-0.53437708442828746,-0.046896677693688299,-0.0051776773365521077,10.328666848620703,-1.2089590620981656,-0.049740488562986303,-0.0028357536154014588,1.3812277083965991,0.057286845443436679,0.00077518977971624634,-0.00019257255150575796,5.3927346763976809,0.20408339245143958,0.012931076821397795,0.0013671017148591839,10.181676328467107,0.20146997409845746,-0.010477660408957465,-0.0029181161696927053,1.1168311691259747,0.10530840146955181,0.0057847153119449882,0.00048366246408227222,5.5057736413452405,0.01497553113037664,0.00069220833694508266,0.00010836422704183001,10.539203711419107,1.5795281072031087,0.11058911126617511,0.010571750369166553,0.86091531849865777,-0.014908570618763148,-0.0016076335090606532,-0.0002431582953128814,5.1100041557546829,0.71556290655732124,0.045369056850002261,0.004126777582202399,9.8998254746486474,0.3032204711841584,0.0066718747328793539,-0.00087623598605074513,0.93847384354605834,0.003527302170955109,0.00060115499230187425,4.2263860330719905e-05,5.2388285917214121,-0.8830511371540557,-0.049671532019349166,-0.003818694197818238,10.37222129429168,0.32341482373361746,0.017381110858923306,0.0013677416295061475,0.52976774877374577,0.0089555217602040361,0.0010494310204529037,0.00013966235064350968,5.1741943382630922,0.40948811169555788,0.032697899619565998,0.0031906415655184512,10.458381101594201,0.24032759193745551,0.016115721230357902,0.0014029745981887541,0.091826417991278123,0.0058750401015455183,0.00037952761778553063,3.0647802184446547e-05,5.2314355511094011,0.16292798797947311,-0.0028212304792742168,-0.0010299814428984997,10.102999127394394,0.36325519614402674,0.010250929315638157,0.00030888666122805362,0.023380759800710752,0.00051515321319972965,1.6124071763352331e-05,1.568552818594534e-06,5.4220538207631099,0.5380426362978763,0.022405296773231671,0.0013552793302194195,9.6475603425591778,-0.88075647017988556,-0.037359271538195155,-0.001860583253951695,0.92350206673999424,-0.05399545837215676,-0.0021386002002914701,-3.8456931542542295e-05,5.2485589213464925,-0.23913167189811541,-0.021668540425688932,-0.0024651996696124097,10.07088971053941,-0.59261628914963616,-0.046286752328087585,-0.0049238878621571704,0.53088209696006416,-0.029008041278697289,-0.0016072368342681005,-0.00015784058016860567,5.2870514679427814,-0.58451304192434672,-0.034162484556854208,-0.0031808924842433705,10.556802719744134,-0.63057526025050559,-0.040782144155265258,-0.0036575133923917565,0.093804538461384646,0.0035910421312477948,0.00032563574767804421,3.3688301908480136e-05,5.4110639022061688,0.030359396441556996,0.010500330217840415,0.001304553381965011,10.253068743345443,1.1925622269593137,0.066640554373999572,0.0055693562335270078,0.032046240178039934,0.0040354762314343019,0.00023983258330922237,2.1104166823758834e-05
5.3617199797120794,-0.69780118910924382,-0.043890335043286009,-0.0035828344882142455,10.262840771473899,-1.6968966062093966,-0.11727512339141583,-0.012077214245304444,0.9200642812025368,-0.039829715996069701,-0.003757165714836014,-0.00038090333568332536,5.1772757974143362,0.28575459644765888,0.00011206364256470622,-0.00097303683830658608,10.359997649289241,1.1750749505045937,0.074356569882670961,0.0061115199967759085,1.0338199930620386,-0.0092254082339312538,-0.00069853701163759448,1.1713718393784945e-05,5.195476200425091,0.48177295937024384,0.032266423067482959,0.0033121873470811211,10.232814500197305,1.3751789670399828,0.066128280183126276,0.004519582353452613,1.1324410735017272,-0.017988572685545878,-0.0027808913060437474,-0.00041530306097901112,5.432452546399003,0.38206262329928242,0.020364899393132761,0.0013960683691288038,10.189274906625657,-1.5100496627093221,-0.10790594273152333,-0.010252195144257452,1.2281461568081529,-0.042004007698580217,-0.0059243070667056169,-0.00079192265197644367,5.4083708983975205,-0.14468735415062453,-0.0012825215281319982,-0.00012438358953963721,10.293362192680648,2.202151663100024,0.11775154556272736,0.008053671678636647,1.3226115218918351,-0.066318026231101057,-0.0030998579943732544,-7.5184527113895559e-05,5.3448667441657198,-0.47256978654743326,-0.03107781660067449,-0.0029434948557786177,10.249281683344408,-0.27760422119243944,-0.018494536509118073,-0.0019532029217053039,1.4466976310878881,-0.077972247223765626,-0.0063992284117369205,-0.00079368493493355919,5.2747444535798831,0.27312408036851343,0.013339393958139026,0.00047739147640500743,10.209670258460973,0.66305697071040171,0.03369645974452861,0.002403406893581264,1.5654938767764226,-0.089958965848429606,-0.0075446319169733822,-0.0007832855701123692,5.2793216921417283,0.58475005220748266,0.031378844259395584,0.002413229214817647,10.37079694717846,2.4262622808793544,0.15616552202750181,0.013585902391918474,1.3727666612293272,0.2090161417907363,0.013568534593153339,0.0011925005580616323,5.1443548182568062,0.1271781714005274,0.018656988166095911,0.0024454209672667387,10.440857241391161,0.13660146154177033,0.045346537166137915,0.0071342258066560017,1.3806517992214398,-0.040856301194802658,-0.0042648863689817643,-0.00047607473265334017,5.167526661375736,-0.73055290429518038,-0.051459729059329939,-0.0056885786397414696,10.233260716546392,-0.6007343167977176,-0.010928885883485498,0.0014109857675475579,1.1217124194899983,0.055472934081244735,0.003131428899921383,0.00034950538661016051,5.1808156576167894,0.16086205364135658,0.0062393709647230334,0.00061658792986102827,10.21786258613273,-0.49726439381088888,-0.044957365062884239,-0.0055573556923519153,0.85385444923896825,0.057234349142884215,0.0034365647193698758,0.00024706452368841161,5.3826279595527575,0.51602125505894947,0.029617924698819444,0.0020941184295061657,10.061986906282051,-1.0360029120371339,-0.053294660352218345,-0.0040596597408995494,1.4060851736222311,0.09673500149804895,0.0069902055498781597,0.00070498886509983067,5.4167716117724813,-0.38540640104103818,-0.035229326159567934,-0.0038150043859227398,10.193921375066283,-1.9788492931727615,-0.11010488113005257,-0.0098514872713194573,1.3644367501933008,-0.051627231799304028,-0.0077684219417026501,-0.0011857799090830953,5.4145706549094701,0.32838170916369069,0.022682118000764702,0.0024993404430455274,10.120979050816294,-0.19201772441990245,-0.041356052168847086,-0.0065051905430975575,1.1348306202076208,0.21166735158310229,0.014125718556005118,0.0014529725071309519,5.4708505363987951,-0.20502636093825982,-0.016559874204744258,-0.0018977937613963887,10.489389998526184,1.1690410648042819,0.078417529997491492,0.0068186212282898544,0.85676966272455901,-0.039994245532545915,-0.0035760305543336632,-0.00047175618135732406,5.1595740944453796,0.98206336143560036,0.06627378585573851,0.0065527322717118747,10.01815013905652,1.0265033130177716,0.063377969253729724,0.0057184355067763804,0.93943641480301021,0.0093499778537653733,0.0010577222375521087,9.5303293020964743e-05,5.1448237822438783,-1.4178224537770485,-0.091607699269229501,-0.0086904937850887706,10.330754978997938,0.043181639664865767,-0.0045948286696109626,-0.0011891598241863973,0.53181297449909892,0.021233422478329086,0.0020128412638432836,0.00025152305423487806,5.1814506307852506,0.4296362141157431,0.034284172740253513,0.0033713797065074418,10.480644759523855,0.36506598593911338,0.025899134599124789,0.0025389357770237856,0.092536338354782532,0.0099634429614970776,0.00070015028648643621,6.7893422953713037e-05,5.2282969608378611,0.13299222966410668,-0.0051768861478948382,-0.0013026939602677038,10.192453472348866,0.90170617073081738,0.052471486046818144,0.0052178355176343057,0.023422762854172642,0.00074647544176068741,3.4267474140231135e-05,3.6764015218639473e-06,5.460132307561258,0.74337144496801166,0.038503228697442535,0.0032255334817467324,9.6659957610399427,-0.71022588276143339,-0.023975506355835598,-0.00030218676087498311,0.91349568275062543,-0.11339815596311174,-0.0067956871958635545,-0.00057992744614871047,5.2477889662275681,-0.22917103992686777,-0.020895074078972838,-0.002372396327125389,10.152297260629997,-0.045229089414712265,-0.0033733839785230202,7.1704064331642135e-05,0.53146352462536461,-0.023556732826799043,-0.0011800607645475313,-0.000107986008145339,5.3012548802358381,-0.4590815712948263,-0.024331112242121311,-0.0020340247369435125,10.478228330391335,-1.0843045190371019,-0.076368325679332216,-0.0077911388432220013,0.094526478614173237,0.0078975950260345654,0.00066343847129666177,7.2928044036112691e-05,5.4254119559309162,0.11856068478151018,0.017421911161883939,0.0021078617923664705,10.215211242954634,0.88092337228437234,0.042205141763159634,0.002721587437288152,0.032070355948076952,0.0039359347669433069,0.0002320493893266341,2.0174615717523496e-05
5.313106466348513,-0.97383161198476909,-0.067822276833622491,-0.0067861882762063593,10.256048336226732,-1.6306676680842223,-0.11155154337453178,-0.011293759326130814,0.91581016634878853,-0.065389617315289444,-0.0059739761764789553,-0.00067756356557023946,5.196375347119619,0.3932694470255817,0.0094246924115986407,0.00027665652810770569,10.240558354516011,0.30738274998993276,-0.0008831094297664932,-0.0039828029101993461,1.019918630324939,-0.10064144676700676,-0.0086243623778744921,-0.0010507853360945338,5.2752596101918137,0.97831982998721401,0.075326390255730763,0.0090800796128696626,10.211414688518136,1.1431328384364228,0.045995744388430793,0.0018146900637551473,1.1333636529316413,-0.010717722162463588,-0.0021521866791899976,-0.00033046637910925356,5.4640905003279006,0.56639617977880607,0.036344483248530429,0.0035363134588368606,10.293348116798347,-0.72222410478645316,-0.039603679333036351,-0.0010823052888354803,1.2234550313232226,-0.07033374459183947,-0.0083835151487106681,-0.0011205261070364285,5.3571394199973952,-0.47424855695315782,-0.029858412364987479,-0.0039549104206078618,10.435428153592911,2.9979238439405553,0.18673016383100435,0.017289689536818555,1.3267490465160843,-0.034569774690433458,-0.00034507820767034876,0.0002942036878928952,5.3640998662027304,-0.31427520484260663,-0.017354804958702088,-0.0010999334757871644,10.244105705032506,-0.29366949877108584,-0.019891019954518262,-0.0021377878561959973,1.4482940428344275,-0.062305358767626412,-0.0050431606499746345,-0.00061083556288748305,5.2341329926618627,-0.013653586746525226,-0.011533463712217237,-0.0028575380951495208,10.272298516080612,1.0340591500121867,0.065860310459854798,0.0067118566184536299,1.5623920281275607,-0.10460978926118315,-0.0088162705518401736,-0.0009527029542078058,5.2794810491258577,0.54740095212985962,0.028137273286518841,0.0019754507891186434,10.313556676642062,1.8882651591759454,0.10951698659825512,0.0073142981190079453,1.3749498111540857,0.20976293128740861,0.013633442356778335,0.0011996030736680778,5.2238994358711048,0.6454851007027681,0.06360687416940887,0.0084678250892523087,10.294382634373456,-0.84158955210835418,-0.039438952379560542,-0.004241115803437872,1.3859783935312653,-0.002933733480933301,-0.00097773783543838363,-3.4783303037743047e-05,5.1390563120435448,-0.8711511074828695,-0.063663030393337608,-0.007316846196462716,10.253938291500083,-0.42419931616544626,0.0044017803269602567,0.0034642212831738316,1.1171849984965625,0.021861975310873902,0.00021785119648544231,-4.1537955575246283e-05,5.1370660190110513,-0.13932622328752131,-0.019788752964845297,-0.0028733955382574117,10.248925380480198,-0.25916306226522945,-0.024328521884809162,-0.0027845405711101174,0.85978340823248733,0.092725663176756803,0.0065134533223879078,0.00065920051531773876,5.4038339338922645,0.62252252649067685,0.038847741698067532,0.0033285989776636856,10.084235859475088,-0.82066351884038224,-0.034617271235955704,-0.0015504512632808463,1.416839216499344,0.16158556002435009,0.012614286335143015,0.0014579706100605176,5.3537956772946087,-0.77710397226930483,-0.069200424123476989,-0.0083638293446571133,10.220551343207109,-1.6726477478083375,-0.083557604400956886,-0.0062795299462700196,1.3675261716742637,-0.027834541418497786,-0.0057105100759865073,-0.00090832037529050571,5.4150901193671608,0.31030253506935174,0.021119815064804495,0.0022865580691978807,10.120301843555971,-0.18419008529685724,-0.040706493761044724,-0.0064093946447787995,1.1245583591183832,0.12979555045556029,0.0070290122068510132,0.00049968756949146035,5.4156410703339244,-0.55707348952437696,-0.047089965725688451,-0.0059879104030049366,10.471886988830834,0.97655400547729798,0.061727426602809388,0.0045721165565039039,0.86742446015684316,0.033147917451461874,0.0027644023441477142,0.00037883242204722785,5.1339317072403983,0.74795730044070552,0.045982832919341493,0.0038238781299257179,9.9153612277952057,0.27875670990124646,-0.0014558162435206606,-0.0029804156498098172,0.93697336516938523,-0.0075628488478261379,-0.00040872821671260871,-0.00010140704357617285,5.1189626802047146,-1.4960433506060673,-0.098397551979925127,-0.0095890463127986693,10.319262612648998,-0.035794878862700309,-0.01145066695119773,-0.0021066137265940876,0.5372577591322153,0.055889060861161813,0.0050185487348109953,0.00065411100065530911,5.1629704845086293,0.27919895714362764,0.021243954798491262,0.0016187755077066706,10.440409553611211,0.074814389966075201,0.00073477388869978497,-0.00083783431923960955,0.092838830178298443,0.011313028958024933,0.00081724242225780233,8.3499001282696288e-05,5.2413513592190171,0.21055218673441536,0.0015396893791464897,-0.00040056828186346488,10.208041511233777,0.94571030517370291,0.056293677302759713,0.0057232183337149155,0.02376970268686153,0.0029939595358014505,0.00022915049789740534,2.9796193162676589e-05,5.45396026592904,0.65368069718761013,0.030725133714034212,0.0021785299456050285,9.6914128947514495,-0.49519585699032331,-0.0053128057878194038,0.0022000156498330533,0.90605091655253145,-0.15523808072435166,-0.010423468892679049,-0.0010654662823771457,5.2749296709694988,-0.034545552943062774,-0.0040249847060766196,-0.00010772424697428782,10.21813614677742,0.39355221605243257,0.034676329306308214,0.0051722990429390386,0.52957065247713997,-0.034538664221710903,-0.0021323438098126445,-0.00023549797084854033,5.2396672591459712,-0.83660682886293403,-0.057064997662507916,-0.0064193846862858218,10.528903180177988,-0.6778260906529856,-0.041134848128993054,-0.0030575292638034051,0.094636718879875154,0.008110967282867353,0.00068209336762877881,7.5331032693662408e-05,5.3354056882860208,-0.48491464731973999,-0.034898570210791013,-0.0049086990742373635,10.223951884375319,0.88087754175006916,0.042191776493164683,0.0027161473993996274,0.031850103946463891,0.0022196841826421145,8.3236317034763256e-05,1.9868179691713501e-07
5.3587895455708248,-0.59524179651828413,-0.031673961938782941,-0.0012322401755691902,10.278604921293251,-1.3658066830094591,-0.086266443635192841,-0.0073988318723155581,0.91291358650096821,-0.080793891237858975,-0.0074459916467811494,-0.00090226608032176279,5.2268354794200595,0.57488609158207182,0.026760954543641871,0.0029348425473442953,10.309860857523569,0.7605727377180429,0.042352844867732109,0.0026537741788836616,1.016503380022151,-0.1172083048754332,-0.010208592113014298,-0.0012921241640417855,5.2244875456381008,0.56467186384519796,0.035846149712701621,0.0030116447464435155,10.136760202567322,0.55449726883758221,-0.010238599810963339,-0.0068119360436796044,1.1419656570419443,0.048857862882829908,0.00353541273857897,0.00054226477936677249,5.380171515643811,-0.046263174144317354,-0.022157457981075136,-0.0054407012157492631,10.380102808872946,-0.079528330245046686,0.021794067540679418,0.0083350336092240448,1.2157825291341022,-0.11810432739479919,-0.012948302401031026,-0.0018188427241300278,5.3617892377129834,-0.41026617057549469,-0.023759779931961204,-0.0030135868264740411,10.53844724509203,3.4995352772308213,0.2346233337012601,0.024607853490962912,1.3299153979377902,-0.010540358796797957,0.0019527506871353829,0.00064613709555293598,5.3411984812884379,-0.44964996570654159,-0.030276105605069353,-0.0030797985479228936,10.271178280511842,-0.08851013464248636,-0.00030281296578130168,0.00086944886282110979,1.4450959700474422,-0.079974791095161785,-0.0067316970075975806,-0.00086884506685899992,5.2214442785347117,-0.099658890742776923,-0.019763622255516575,-0.0041152955748101384,10.334873171676648,1.3921300021097811,0.10005654129723446,0.011945742001746421,1.5562204021704813,-0.1397686521174335,-0.012174679340083844,-0.0014662722245704992,5.2303917698522646,0.17429959946132872,-0.0074971399839891505,-0.0034923101683302965,10.283701312808711,1.5558120043840271,0.07773970637069727,0.0024298621231543154,1.3785820418141279,0.22039584134664666,0.014647746222907158,0.0013533124431803446,5.2146012650454558,0.53830287072378202,0.053395988299653065,0.0068889442166521018,10.189268797698277,-1.5036686577617233,-0.10266533665367909,-0.013930722457219649,1.3872318763323195,0.0058350804506731545,-0.00013982153533867653,9.376907063272851e-05,5.1368454322331134,-0.82728289736182692,-0.059486415553735912,-0.0066651187642492882,10.139292415420476,-1.1796435458312429,-0.06770484685351906,-0.0075990355753561226,1.109322407769181,-0.033435143921976593,-0.0050630705109478025,-0.0008513323817018561,5.0484148356009904,-0.73661801324505571,-0.076833717115860733,-0.011617145198668079,10.219747021955131,-0.44132948663169042,-0.041728117521046798,-0.0054485931515372878,0.85883954357008085,0.079984634609660571,0.0052971870882827423,0.00047166853928989373,5.4214351836776409,0.70074330383210293,0.046313185158673158,0.0044683608338703246,10.13038996775313,-0.44901073337196473,0.00088925465469284759,0.0038970457074953583,1.4143811275196894,0.13382970856581253,0.0099664192485053819,0.0010496698830571817,5.2860795463443147,-1.1879732429328949,-0.10845167597278016,-0.014370396361680783,10.196787907144763,-1.7216085120310243,-0.088215823560408302,-0.0069842632419886332,1.3650729939514048,-0.042771979417400692,-0.0071405056306281739,-0.0011262250288063137,5.4491646320045817,0.52244258189781834,0.041379665751313049,0.0053900100343590666,10.254459941848937,0.74605600776944359,0.048097118884155195,0.0072189525234931445,1.1156448263496204,0.059986880291375,0.00036129436800194474,-0.00052360960079006578,5.4740834181673392,-0.1194910225125313,-0.0053202857428354469,0.00042688046980650114,10.403748565831924,0.44405840480689374,0.010866403247891773,-0.003234710176626486,0.8744426701095227,0.078931517376343657,0.0071374057141660287,0.0010488753631865077,5.1274454422455849,0.65283422108181322,0.036893882061273933,0.0024241738521106251,9.927573815258647,0.34323733293420089,0.0046730113729828134,-0.0020359559005593063,0.92854007972777508,-0.064757728452596683,-0.0058708663454971671,-0.00093890018310515658,5.146814323350668,-1.2040337478970367,-0.070515563937931555,-0.0052984861540720596,10.327321350076154,0.021689290139221697,-0.0059716498796971934,-0.0012631459890065223,0.53579707814414856,0.042117758280656142,0.0037052786786295529,0.00045171076485286564,5.1877664947395399,0.42997635334644202,0.035637518781815168,0.0038236245144191239,10.405387651050049,-0.1699507599302969,-0.022646822609127489,-0.0044222447160873965,0.093489607462223248,0.015000010819697691,0.0011693649690655168,0.00013737086276656999,5.1779385349187947,-0.23777093447362851,-0.041275969644155711,-0.0069659686612477956,10.230233466799262,1.0333980653233488,0.064670394653569246,0.006999056728471678,0.023809223938058802,0.0030617407690124113,0.00023570190398621116,3.0755192907803893e-05,5.491661254648788,0.86723210171864928,0.051109502506384241,0.0053012431079830086,9.7489562164601171,-0.067595740101216939,0.035545611142974276,0.0084625027360098332,0.90564755047923851,-0.14747616468551056,-0.0096829830662363871,-0.00095027479434980965,5.2658614761156066,-0.094273594112455839,-0.0097256233539104141,-0.00098178305324132884,10.201378824506158,0.25228751900167029,0.021205609216196408,0.0030985586941346213,0.5243268153817795,-0.068079061668590735,-0.0053354198492149597,-0.00072634599048682904,5.2447666139878644,-0.74501521409078608,-0.048328625223680581,-0.0050697698799772282,10.433574383765357,-1.2841693265926697,-0.099025588186405222,-0.011930700890152867,0.093749536461314439,0.0014915959061595416,5.0114020307857475e-05,-2.1701968987724668e-05,5.3506812028438855,-0.34754012746573415,-0.021796474535941551,-0.0028918935335744008,10.248446539850841,0.98862265900746327,0.052467171874505142,0.0042877699258225196,0.03183017202092131,0.0019322035391095016,5.5707415974812281e-05,-4.0233299128610134e-06
5.3250952216234237,-0.78868538155816004,-0.051937124486827843,-0.0047614412142017856,10.122991749423202,-2.3549242714457916,-0.18996658159210023,-0.025458206806426183,0.90875825357121998,-0.10417019892213683,-0.0098983889207334974,-0.0013280834864245186,5.2002964050014828,0.35035748117402332,0.0032186615962961455,-0.0011730888083072446,10.29564857909779,0.60908574919778058,0.026450373582027797,-0.00012224275661706311,1.0094416060707776,-0.15831064419659663,-0.014520700929045297,-0.0020413620792695073,5.2560764333065277,0.74562612351780189,0.054813119549456037,0.0063118516596940635,10.062705044456942,0.00022584435932015978,-0.068415602328911918,-0.016938821116684807,1.1514961199569471,0.1118411749442072,0.010141413822219624,0.001692575981425007,5.3457686646430815,-0.28276747031546723,-0.046987911178949474,-0.0097585293799236569,10.494911157448561,0.72550933816977015,0.10626896053106169,0.023042310830110262,1.2264508788832513,-0.035734489498272626,-0.0043157880678998603,-0.00031124753567051441,5.3762562861630139,-0.28121421874151209,-0.010232888639304376,-0.00065094537597293767,10.511428588375749,3.0700624987816418,0.18958971294304566,0.016716765485730339,1.3407911448811412,0.06592876066477453,0.0099755409232680572,0.0020431772159939516,5.3789429893211,-0.15586248078296033,0.00053075424694667625,0.0022944127580227227,10.250099803810427,-0.22909831976698852,-0.015035566377100282,-0.0016996066856705483,1.4426163423395499,-0.091735049301948521,-0.0079664764199283127,-0.0010825212138285852,5.1989291480943729,-0.24966089614252965,-0.035512902829243922,-0.0068528185567642511,10.437074955443931,2.0077007897101589,0.16461838722077018,0.023176394300399646,1.5481104969180728,-0.18661637548084764,-0.017088915176303954,-0.0023201419108542726,5.2270548429354218,0.13886088903734006,-0.011240206905602498,-0.0041385443455870955,10.238920066536519,1.1364827022716386,0.033712548731079157,-0.0052471746845040978,1.3902320470507059,0.28630020825852398,0.021556496629251881,0.0025549716245839172,5.2357925755546875,0.64887507518282062,0.065003204438918868,0.0088997780521533308,10.16470755714017,-1.5709697391852568,-0.10975395829472416,-0.015141809379008156,1.3862809738730795,-0.0011926370380158733,-0.00087564837081707402,-3.4630053169315073e-05,5.1040867624531971,-0.99832662218415757,-0.077425915932460274,-0.0097798970881524654,10.187390771266735,-0.76331275047335945,-0.02405429284867884,2.1377437557792457e-05,1.114776203616507,0.0068127483606389982,-0.00084596689509127895,-0.00011491593751338923,5.0540309033088375,-0.64697838910710304,-0.067469852193991292,-0.0099650184732976987,10.079396406416981,-1.3881215758361569,-0.14101730855670586,-0.022742652153139642,0.85360840348331846,0.038048349035389201,0.00089900221233312969,-0.00029564405865851291,5.3908203729918762,0.43926628692018604,0.018891390527678801,-0.00031834049948626948,10.197486746292444,0.049382485252714603,0.053187664086895237,0.013004522976440787,1.4171522982248645,0.14390155173854732,0.011022570701285758,0.0012319006358078016,5.3082467220892768,-0.95198777786602151,-0.083736679545853926,-0.010038163693623453,10.137790991489707,-2.0133364298682124,-0.11878306172186417,-0.012299175571509214,1.3637972291021569,-0.048745002639622351,-0.0077705923824973088,-0.0012340702371006177,5.4731190713183455,0.65323968784496544,0.055105238130812854,0.0077726311828591197,10.330674963764789,1.2251858348706521,0.09835931295793221,0.015965780551472374,1.1207032484738768,0.091030574989083887,0.0036108541708822278,4.3617683802280017e-05,5.4595336591782457,-0.2125181652499219,-0.01506505738392749,-0.0012721267525312985,10.351652894290373,0.050560444815542449,-0.030438632142681617,-0.010427479134545909,0.87620342414529095,0.085763568630696188,0.0078567983726378562,0.0011724190966404672,5.1403830017030216,0.69781109684550247,0.04159559902046648,0.0032393375829841207,9.8084834537519416,-0.50971503111135141,-0.084790903857661457,-0.017623669165541169,0.93318326227784776,-0.027980424654242303,-0.0020177090140011318,-0.00026575761554396002,5.1306315735081975,-1.2335538910134043,-0.073589995792825005,-0.0058250467209465043,10.295416821973829,-0.20199619246514722,-0.029433169545057345,-0.0053496846220562194,0.53599984802180722,0.040632999425473874,0.0035502196722733354,0.00042390074891188737,5.1497556669624114,0.13575621477688327,0.00478710434426554,-0.0015594735340486573,10.397525497669273,-0.21307360340863279,-0.027189039292247679,-0.0052061295235638844,0.094361515645279961,0.020037193309656334,0.0016976994133329482,0.00022920657733958933,5.2064237135961777,-0.023303729081574326,-0.018813763003524091,-0.0030392433762718085,10.226533581836081,0.93631950422252064,0.054493097048078157,0.0052132177311126106,0.023873686772107321,0.0032996474680865523,0.00026070850429114455,3.5059602332381676e-05,5.4476161031437345,0.50070916454152714,0.012676124103778809,-0.0014059458047866675,9.7533210377225927,-0.032158586193790722,0.039308779723320586,0.0091035783473954225,0.91524464968246366,-0.070487909296526957,-0.0016095121848601103,0.00045837979586789283,5.2108032925160801,-0.47111664829257227,-0.049240152988019995,-0.0078664391426141629,10.299663677881298,0.91918261629972875,0.091143462675334713,0.015281529322507172,0.52424227798577483,-0.063979507942356226,-0.0049072149172000121,-0.00065045504028658785,5.2789182980957117,-0.45585194824567654,-0.018007610396997751,0.00022323913178098464,10.322453729610737,-1.9693390782272555,-0.17088635563023674,-0.024433393857504596,0.092707497825184601,-0.005866388350521866,-0.00072169711273261663,-0.00015617099479447419,5.3491087524178669,-0.33450239416147032,-0.020435415628223222,-0.0026496561146848131,10.199639326013337,0.58050837621553586,0.0096610654831050108,-0.003179706883272398,0.031921003928978398,0.0024305893082176466,0.00010786840094597765,5.0740009833668456e-06
5.326868537747159,-0.72159493477109971,-0.044215203259342452,-0.0032316731522212183,10.169573277986579,-1.8660561001412646,-0.1338235164618293,-0.014353898459499241,0.91109661168675782,-0.080615619165271907,-0.0071934687619572557,-0.00079288842986197864,5.1852359524108831,0.22049661625450917,-0.011719964722473256,-0.004112091723477946,10.1936410317326,-0.14701986804736433,-0.060470530663043712,-0.017236129527887376,1.0095079129910716,-0.14690998166646349,-0.013214287697914724,-0.0017801190094136913,5.2625735981612909,0.73944462192227267,0.054102853501205674,0.0061595775648436695,10.07279027497027,0.070115008790439623,-0.060474828525529906,-0.015341986067230062,1.1401585302068278,0.024784905028491663,0.00014244210948364741,-0.00027948525572687034,5.3540233816052014,-0.20567826986212406,-0.038172594183579774,-0.0080036402985244511,10.389817218729572,-0.059566380609767489,0.016158690479245549,0.0052548504845186007,1.2429224970382877,0.081975529250360835,0.0092129270595198709,0.0023530761314189599,5.4055942332845914,-0.056359918274106802,0.015611916086052911,0.0044390003589738526,10.610246309067762,3.5485058859876442,0.24452012777454873,0.027499271723799117,1.3437717822691941,0.082267531374818903,0.011862097672622874,0.0024106043728006924,5.3954825367299648,-0.029224951559286699,0.015105863020536969,0.0051596337623009796,10.243936290537548,-0.25633945945864961,-0.018165740628998985,-0.0023125700311814085,1.4439137962620021,-0.076315068721818702,-0.0061961247720225196,-0.00073181975628756153,5.2196279714918337,-0.087706284560356951,-0.016929265210467833,-0.0031803355593608869,10.429692183895813,1.8171553712861128,0.14276396172366798,0.018827775697763671,1.5438151345467435,-0.20377841948719086,-0.019064673500213476,-0.0027045869189870121,5.2236712466214428,0.1053612597650186,-0.015118324026025774,-0.0048939703908552719,10.24027706736655,1.0667833578267913,0.025611735625529763,-0.0068318376725554197,1.3998159475941638,0.33353425438313949,0.026985248081815037,0.0036188248369301524,5.2501887645270715,0.70483087680364964,0.071447716697687944,0.010151135085215918,10.183526531791919,-1.3304336773047876,-0.082137513607046325,-0.009674508422707298,1.3825292414612995,-0.027368384516210799,-0.0038830230244654104,-0.0006266932277824717,5.1099854981216932,-0.88794844467047807,-0.064750369232736346,-0.0072649132901674626,10.311380539033495,0.15741604353967098,0.081780829079903986,0.020859542013467652,1.1011587273482539,-0.088953124842135869,-0.011851257086727929,-0.0022815555259625667,5.072440805744872,-0.47354765119575715,-0.047561794316494294,-0.0060256385403551034,10.099216761793802,-1.1536747781258421,-0.1141406609057953,-0.017406046602728334,0.8543276668858939,0.040427441626566113,0.0011684122256711443,-0.0002420169795517961,5.4354764331261212,0.7211701971045128,0.051262012938034035,0.0060558389210303371,10.197736041028694,0.048185420435628283,0.053118950063879539,0.012965388648338173,1.4152449139960299,0.12059333619303339,0.0083437087948374841,0.00070202564708578665,5.3675077270468945,-0.47153884307517557,-0.028529090917518506,0.00085159476932130523,10.056751186860197,-2.4406435960719608,-0.16787428065280269,-0.021940682279117038,1.3578509113445532,-0.08701556210970865,-0.012171928960610595,-0.0020982332999007198,5.5239364563677009,0.96363239702362802,0.090788951397287057,0.014783204811056761,10.312577564547841,1.0137830740947502,0.074112105225040109,0.011160236806582697,1.1153680911756059,0.047366129925624612,-0.0014106404894474065,-0.00094516591415066411,5.4821961035241484,-0.039225431599670624,0.0048537984989299576,0.0026522635281495425,10.428275430964234,0.58285378355036865,0.030661613453856696,0.0016232694405276336,0.87719883235323171,0.086803434827599613,0.007978985203340937,0.0011941684296957612,5.1892249649353772,0.99113260900233902,0.075287761821333316,0.0098667143823678374,9.7939319296341552,-0.5766860687254296,-0.092565701877155029,-0.019119773562957243,0.92914753640401893,-0.05427996468395653,-0.0050403070468102509,-0.00086036309442343603,5.1338589624959541,-1.1253710530285428,-0.061131612967147482,-0.0033606078222661443,10.436105538390128,0.79624727929266548,0.08526219756086871,0.017243576463874682,0.53912464768347135,0.059688320068008921,0.0057401541386020959,0.00085424913280953687,5.1599810833829141,0.19785040957630634,0.011901687534051292,-0.00015559060307080721,10.414305102645631,-0.081021223257244313,-0.012034780437994415,-0.0022121098055392376,0.095252824091864946,0.024888046839529943,0.0022554840958081248,0.00033857924812859269,5.170614381537205,-0.27241155739173434,-0.047449208278748073,-0.0086713812900162147,10.200167474052719,0.68684890905927487,0.025814198992512156,-0.00044372426344927753,0.023802561828864068,0.0025736310376821949,0.00017732776924927156,1.8573479867435745e-05,5.4560336864354744,0.52469451643242238,0.015403827147118843,-0.00086611164960666742,9.8537525024521777,0.67318686153396501,0.12041067785198417,0.025054059256074068,0.9211159636747831,-0.024490019646167781,0.0036828518212551897,0.001499507304177884,5.2273646682644896,-0.32274895306365287,-0.032212236647787801,-0.004498271202240567,10.396816920779544,1.5355259513398085,0.16201969432175961,0.029206482960594558,0.52525068452550761,-0.052494484415777309,-0.0035882536231068188,-0.00038947994342051437,5.262916778307229,-0.53609199737875857,-0.027205620341284403,-0.001588225225973625,10.282191987997175,-2.1149054017123166,-0.18766219737317513,-0.027688333898774599,0.093013003143279829,-0.0033252809486206407,-0.00043041247929150804,-9.8511566488427923e-05,5.3998648617209239,0.043844060434883814,0.023039974938478761,0.0059155658819360869,10.315624892844019,1.3515305434937201,0.098221634226162507,0.01426351984743451,0.031948137748074187,0.0024514174045477,0.0001101886523361742,5.5208521450080912e-06
5.3105653065936194,-0.78533596686694707,-0.052209289253606558,-0.004993470992899365,10.085075894091071,-2.3260555356513266,-0.19165778000632791,-0.027119829071483983,0.90569548932129085,-0.11269974957262742,-0.011227915187155067,-0.0016838851009418261,5.2249747350364348,0.48189392530581354,0.021132468354823755,0.0031666663624903167,10.122202524606738,-0.63509690697211296,-0.12195748842972698,-0.03080395849912921,1.0097233079300445,-0.13530117088072413,-0.01175529007000306,-0.0014533297138667571,5.2683320481714775,0.72856857202888448,0.052728360232055856,0.0058417966175877594,10.104810326320372,0.28773981680941724,-0.033179043681804271,-0.0092679655850179971,1.1360856441926035,-0.0053177371165175277,-0.0036468673260970615,-0.0011173735436084522,5.3172860198815464,-0.44767825778016035,-0.068643540727699237,-0.014728607839778553,10.331582536106342,-0.46100044806301427,-0.034301853628432813,-0.0059227979192322151,1.234347744573592,0.016609892885477914,0.0010031068826983503,0.00053118209936841936,5.3537910793636039,-0.41321210069890474,-0.029248544395433694,-0.0054976438729562385,10.662821384536306,3.6699390973504569,0.25976136557449975,0.030811035403409095,1.3510384951898196,0.12727989850884075,0.01753296398569058,0.0036601319239073114,5.3605029029416515,-0.27075748689871859,-0.015241751083791992,-0.0015671704878020146,10.170965686759375,-0.74706542714593005,-0.079889952620016469,-0.015965922320999616,1.4339419619164999,-0.14053487974892565,-0.014273269930976162,-0.002517528842552681,5.1827793441442624,-0.33849573079301354,-0.048484274995423571,-0.01015586011750106,10.528168928573816,2.3780472645456268,0.2133220338480849,0.034399358806267891,1.5527071822412031,-0.12781077007141817,-0.0095124439492171517,-0.00058486375274026435,5.1698575723863041,-0.27706359578387507,-0.063249956381765088,-0.015533814537608791,10.272794230876238,1.2192617933707828,0.044690119154259939,-0.0025950132984811644,1.4014576707762068,0.32199487148101752,0.025536037412809697,0.0032901324924505464,5.2367403378351165,0.56271336274128458,0.053583628967378248,0.0061756677458396506,10.133846145831919,-1.5846709866094917,-0.11410908005425288,-0.016727839107897165,1.3750562568811933,-0.077565823715364704,-0.010198280585043773,-0.0020227605714837485,5.1268512173363172,-0.70919831960544522,-0.042258178937053012,-0.0022717159154875344,10.377281603338382,0.60639339004328852,0.13835919971680777,0.033333170045010851,1.093111179554245,-0.13893991060968611,-0.018146534170421402,-0.0036695396299788884,5.0562581668612099,-0.55376319535757457,-0.057651771841488224,-0.0082450373276353236,10.228192407318751,-0.1757805300717149,0.008829365883034887,0.0098435482873368077,0.85905690209844998,0.070572152271124261,0.0049561525277680585,0.00059667807864989552,5.4262856767276775,0.60738385302824405,0.036945907587539746,0.002874539099733509,10.202401610535139,0.077848079154743066,0.056912704589387603,0.013776188909037762,1.4130377783032604,0.096893909637885189,0.0053592948366814695,4.0074494529356887e-05,5.345188640939198,-0.59446499098015959,-0.043946456694592788,-0.0025618783189320054,10.091756209722035,-2.0283254656863674,-0.11602065356026664,-0.010417846627636602,1.3656527909431877,-0.02671217980279729,-0.0045925749293473017,-0.00041641412716403726,5.5360527815624234,0.98178837694764709,0.093106170667489302,0.015263251594296451,10.319391801908509,0.9913423376390349,0.071307802694001277,0.010514998947341316,1.1157800369958268,0.046922476439378136,-0.00147411501937839,-0.00095712021400076513,5.5165074200711448,0.20261290597420206,0.035292841084300294,0.0093820129355313038,10.263540089356308,-0.60522567845136144,-0.11879842481969488,-0.031453169066216514,0.87748749048745645,0.082843795931290515,0.0074828364269655962,0.0010817370533344039,5.2030292018611153,1.0189829498511362,0.078794710004715746,0.010620906318577122,9.9048067950333447,0.23510142356904518,0.0094670053636704554,0.0035005573094780175,0.93790251470009411,0.010452068280601225,0.0030994873132110098,0.00094273236234257202,5.1191440877625691,-1.1500763232788795,-0.064195756947625721,-0.0040312119249588212,10.348147296753771,0.12875940873608904,0.0013700616758838685,-0.0013584171285439366,0.53319663665545602,0.014282647794262797,3.0305287228913833e-05,-0.0004111290999997603,5.159817782426722,0.18304260204988634,0.010022623320932718,-0.00057104977704635924,10.401921309383294,-0.16177448844489639,-0.022198967884184247,-0.004456368588040582,0.095235316050458596,0.0230538148224444,0.0020253194519864602,0.00028689869311759831,5.2500338697997782,0.29945196114280581,0.024453317852878832,0.0072585563031074725,10.220665752401203,0.78206132744516121,0.037753198109658978,0.0021991456432946806,0.023926453863787337,0.0032592271410201612,0.00026352523210927052,3.760634451983984e-05,5.4659229209684277,0.55718752567772845,0.0194627960879395,3.3982489668874243e-05,9.9300591290078728,1.1591008048771678,0.18162829640555206,0.038544988565819963,0.92360632722187286,-0.0053969054466199463,0.0060947540719996432,0.0020299002043770845,5.2139180872901614,-0.39425989428895875,-0.041211384195136924,-0.0064796685212734004,10.384301777768373,1.3429087359403209,0.13788022051718166,0.02380021827372689,0.52600120224875169,-0.043642562536882132,-0.0024742300072433188,-0.00014210449392807893,5.2565930245006811,-0.54306303828808522,-0.028064096875862431,-0.0017746763448352244,10.269916162759952,-2.0548952542305732,-0.18015473352374209,-0.025965796405528315,0.092691503925260252,-0.0053377488773573211,-0.00068398560963517157,-0.00015440479877848299,5.4034673504556494,0.066111702098847883,0.025870957335767233,0.0065289218084160607,10.178078073509619,0.29997899714456877,-0.034024455643129947,-0.015031748861998033,0.031933056179093769,0.0021766044174064188,7.5539007255064967e-05,-2.1587143081628522e-06
5.277355604221845,-0.96054330612315642,-0.076291418197636726,-0.010941275528370566,10.120238570297042,-1.9253764463455603,-0.13654190991412962,-0.013411906551996025,0.91271700437227499,-0.056665702716835506,-0.0035204419272989685,0.00022782958307189321,5.2040299844312612,0.30458854999830298,-0.003257651053119804,-0.0028775595016077319,10.13792888591157,-0.48416509333642455,-0.10133317088319757,-0.025623342552363239,1.0057285770213598,-0.15361595986889764,-0.014273288313353592,-0.0020729202521432544,5.2901781198152795,0.82939776460507209,0.066585719061066806,0.0092569405802729876,10.103875112244795,0.26115043803245558,-0.036884033144382246,-0.010161987680657333,1.1267127268170578,-0.069565199312607393,-0.012491826188459159,-0.0033036752492077324,5.2958263866096695,-0.56535212443978111,-0.084885208270086915,-0.018711857730930367,10.382648887545908,-0.077726705859733736,0.018414828156368176,0.0071388806108322461,1.2334889283476349,0.0095580283684191421,3.6878572197085891e-05,0.00029073252808880937,5.278221872142681,-0.90569006819070308,-0.097015635336696132,-0.022255931435938441,10.611455106391471,3.0656839550629531,0.17658182328806143,0.010148409502765101,1.3510288904163845,0.11861371694589534,0.016353173991279956,0.0033590833512402623,5.3272296800371439,-0.48149937765614709,-0.044229145246148648,-0.0087374746454010957,10.200880757345073,-0.49025320339828626,-0.044608790630792365,-0.0071945602433319111,1.4236445773277513,-0.20193816892036756,-0.02272631592859542,-0.0046033694919835905,5.1845511885424029,-0.30343445334813085,-0.043695525416975307,-0.0089455421212632502,10.444085076487982,1.6369328931013882,0.11141390411247491,0.0090926541024954621,1.5442850045541583,-0.17712466480739766,-0.016289534349705315,-0.0022607000112273077,5.1822909992057076,-0.17292039923789959,-0.048990727774320106,-0.011966307356444893,10.246020397677459,0.95121772466252741,0.0077266864509372285,-0.011736788877549965,1.4075095488841272,0.34175334189732764,0.028252045954314711,0.0039541832701896901,5.1550415912574845,-0.038436652011947126,-0.029131263379958722,-0.014310989598256156,10.161910002352496,-1.2832336143221501,-0.07264917446217016,-0.0064253943422578376,1.3861072208326848,0.0038200026599077286,0.00099214713526679307,0.00075180033395044928,5.1186048581759556,-0.71756000426177413,-0.043373098266070227,-0.0025420285201660001,10.270582037436423,-0.16919972613158651,0.031800150426191151,0.0068780331452003886,1.0827317225978133,-0.20105601781089344,-0.026703829285270271,-0.0057783300782105621,5.1021042691678078,-0.20029081044373831,-0.0090260786136340185,0.003809896757996336,10.178030367468951,-0.50919574887029984,-0.036953832255165894,-0.0015118438124416041,0.85191051295965792,0.016519678392867616,-0.0024809431460794708,-0.0012454292293315647,5.3784179329171167,0.23608793014952689,-0.0141570313248537,-0.0097802048176757334,10.219723814990724,0.19238308523462072,0.072729166076594298,0.017656560367073065,1.4149683907422719,0.10357150369275177,0.0062709886867054407,0.00026561333674791118,5.3095687055350789,-0.799349568536873,-0.072098484043485622,-0.0095229730406210435,10.001920897752132,-2.5086538174022777,-0.18204605958341719,-0.026732901858433751,1.359233715135409,-0.069142969999389126,-0.010427811079757628,-0.0018595647693721929,5.5571014607514551,1.0600673099141809,0.10389978987639494,0.017896823389604435,10.271208519992866,0.59175013493472373,0.016341097191155909,-0.0031149105267271136,1.1109345437067013,0.010290252801870681,-0.0065213100477649983,-0.0022038978303047622,5.5099317268514669,0.14368832968530473,0.027231525929187265,0.007363672447773667,10.301943916758958,-0.30007573347364397,-0.076968464708794315,-0.021022694135767919,0.86691117820562968,0.0043383655027390833,-0.0033169903784901643,-0.0015938238145148395,5.2460391047220476,1.2458717125225141,0.11000654380425837,0.01831933676913677,10.012043890257333,0.95784894755967098,0.10892056360242468,0.028105972557650329,0.93727586741312685,0.0054443579475324392,0.0024157110000334672,0.0007711691794385564,5.1434630206309251,-0.90390178258244336,-0.030280394665297708,0.0043725864233462707,10.254065604289115,-0.52831349015392837,-0.089041847794608456,-0.023731387485561074,0.528547159817506,-0.01873563128435617,-0.0045163168097192181,-0.0015353696129907601,5.1671854530204477,0.22129047949312236,0.015265059298267611,0.00072783076225768346,10.500359346713598,0.52738655889930752,0.07259799870535627,0.019016264764877867,0.095814775907783561,0.025477424442941023,0.0023588269298983459,0.00036872946966258366,5.2895091290196072,0.55103753696561808,0.059103961911638081,0.01581639047943284,10.383950162519463,1.853557953485121,0.18513380628476334,0.038669400515669076,0.024385539484840183,0.0062002754048025507,0.00066815162260783819,0.00013765554956920444,5.4259641155500562,0.2436730342044422,-0.023695227283392711,-0.010647418711632807,10.050015564399848,1.9074847376758854,0.28472212304732814,0.063964612889348599,0.91468142360873783,-0.066457923272889671,-0.0022937823190899761,-5.1229333862939323e-05,5.157096056639709,-0.7589927970422321,-0.091397372410819841,-0.018884322353720295,10.343782800736252,0.97254374625166173,0.086975607249462517,0.011142768971804627,0.52537115920850086,-0.045000466508493174,-0.0026590590728414586,-0.0001874967309618755,5.2713895108120372,-0.40397102925471073,-0.0089077142538169472,0.0029707901994109058,10.292537396388797,-1.7591971923978651,-0.13948586454893747,-0.015836264504039382,0.092191698237652553,-0.0084202119751027558,-0.0011086558046900549,-0.00025912564083255724,5.3253153827409507,-0.47665345737378251,-0.048770014356648309,-0.011960369395841039,10.232176978339114,0.65171818132978565,0.0142624678446783,-0.0030438613325060194,0.032084902489452019,0.0030735753606585142,0.00019881380647407003,2.8356302292819463e-05
5.2621543316715487,-0.9992128674839722,-0.082103172722600218,-0.012512576780925251,10.122432806493265,-1.7813087780222336,-0.11479794100570818,-0.0073833189251119704,0.91336345753696113,-0.048476511389129992,-0.0022809419099535976,0.00056875057995787993,5.1972370733877868,0.23786364897024653,-0.013319155053789361,-0.0056421147224410689,10.173698212597323,-0.20985966970692321,-0.060172087849648503,-0.014210648634992315,1.0043366824082334,-0.15277604145878626,-0.01414617839440179,-0.0020321826383469981,5.3305552044044529,1.0475201259511984,0.099390930064358701,0.018271029316556081,10.021198672455828,-0.31733944475616332,-0.12395426390363697,-0.034126508351645699,1.1289117633509964,-0.050064103119095801,-0.0095724309156070882,-0.0024901217431423932,5.328437898851818,-0.30678968021282232,-0.046048074786289854,-0.0079585815120850247,10.410511235303327,0.11658810628504164,0.047689890106000721,0.015186060180743224,1.2396265041850822,0.05051468328478681,0.0062009751923936081,0.0019884709042421352,5.2239985624007312,-1.2127935510099941,-0.14329069025868463,-0.034945866019708609,10.535799093409324,2.346737883079919,0.068264124283455394,-0.019726895255577442,1.3549822780497676,0.13752996037605378,0.019207772871238486,0.0041364224964343874,5.3014073847522338,-0.62432724598103895,-0.065735994133484826,-0.014639689543425484,10.137164751412488,-0.88935766786864123,-0.10465219872399464,-0.023719917357199381,1.4487176056504654,-0.018509283996896914,0.0048556953030570414,0.003009639926285267,5.1795308200361685,-0.3173195025372762,-0.045807955425610405,-0.0095029802109976927,10.555658542318062,2.2833606878899748,0.20858145974677325,0.035842476377110286,1.5404315531863244,-0.19139658713601262,-0.018434592593769259,-0.0028455492596256176,5.2446120375186682,0.26077682724971807,0.016205925866601745,0.0060318440015530647,10.228210356688683,0.76608535019111068,-0.020252300659344864,-0.019414160552067003,1.4155978146182948,0.3736875165300933,0.033053022535469774,0.0052662141316127831,5.1721305950220682,0.079726235886893981,-0.011454802975946868,-0.0094007414470058687,10.123258711084699,-1.4589522233868832,-0.099038031172441976,-0.013679235478278954,1.3852525455649705,-0.0022228218411160911,8.9124607507175746e-05,0.00050089754088650435,5.1703154452661328,-0.31881312070833179,0.016651579184498812,0.014004996824747032,10.409868062749704,0.78674176905190185,0.17562652614488761,0.046490967413240797,1.0804956734219584,-0.20284278797902799,-0.026990187486244821,-0.0058413147328457253,5.1066398989350006,-0.1560556785538455,-0.0023199908242003157,0.0056472856082244007,10.222548778648818,-0.17326388154763761,0.013622009016204764,0.012428681250814484,0.84893171020790459,-0.0048162732417483707,-0.0056992946655368016,-0.0021288260042125764,5.3494288323893464,0.023441637522978509,-0.046222557884903516,-0.018589028910597459,10.123024695680353,-0.47543915839206174,-0.027666549899337492,-0.010056501810044718,1.3939666105258683,-0.04575131292364415,-0.016198922938422552,-0.0059267853817573136,5.3646292633113903,-0.37262823618979596,-0.0078920608159068067,0.0081955839865022456,9.9791639685800817,-2.4946223908177929,-0.17992853497344782,-0.026075746667625809,1.3731312326346155,0.029648865057455606,0.0044308812408886938,0.0022399266612479233,5.6060669706142816,1.3211319349921964,0.14319515066611727,0.028675489260738637,10.356990982023728,1.1332806542758549,0.097749641262662196,0.01932609653054005,1.1157413522126325,0.042113049728612593,-0.0017463121547688729,-0.00088205667295746036,5.529242993120655,0.26511510716776798,0.04553077934629074,0.012385808176287275,10.297316558791481,-0.31184643722052302,-0.078833453722800942,-0.021478669912466986,0.85791038288279264,-0.05700064968291578,-0.012555360541543652,-0.0041350988591396243,5.2499889049570596,1.189256825852518,0.10150734557013161,0.015926871822253524,10.076455443614341,1.3305941383643647,0.16511086823192558,0.043511970671273777,0.94566606873935988,0.061972519883046591,0.010923503840222447,0.0031133978101926352,5.1775803833788219,-0.61165417311114856,0.013772638155000967,0.016499512857643811,10.30449338638952,-0.15153274424099827,-0.032464643278055934,-0.0080759379321184398,0.52749652413720871,-0.024631166199807025,-0.0054117500002236717,-0.0017778787553244144,5.1748448413041084,0.25835753688794288,0.020825490150022177,0.002258022374871568,10.448870910530919,0.14331979825686308,0.014902355829285105,0.0030656181010484604,0.095290451894691472,0.02021903408336477,0.0015679256913078126,0.0001497776761628733,5.2130148100083815,-0.004267885248676051,-0.024363362266775102,-0.0072269204054598926,10.351716678904291,1.5112051501719663,0.13374042605347614,0.02440121056996758,0.024580228163738341,0.0071061622951888882,0.0008047976228915877,0.00017492954271321534,5.4414965761967764,0.33221433901837211,-0.01044641042633546,-0.0069673191326276168,10.065352948131517,1.8849038046417885,0.28153604552876871,0.062910420664123834,0.9167081008948772,-0.04823712877765101,0.00045017161134039635,0.00070501843050850685,5.2042571721877842,-0.38874117165754407,-0.035750387704691751,-0.003498554557442175,10.457893855966121,1.6809731476531469,0.1935275215853435,0.04047283664311465,0.52837312385609425,-0.021626638210593716,0.00085927086381170194,0.00078250868054408258,5.263717322600824,-0.42868006497363803,-0.012581691636112832,0.0019502260941135108,10.276382079793299,-1.7508070340192026,-0.13817211515095337,-0.01543061861494089,0.092343730330278914,-0.0068295976854265156,-0.00087029588173867544,-0.00019273065694268542,5.2659441435224252,-0.84726878405258077,-0.10456906828135989,-0.027303046741897687,10.229888753096054,0.5921674715301074,0.0052521836213867447,-0.0055182908256158954,0.031972110597511989,0.0021025806850240489,5.2728088358547733e-05,-1.1976291591901505e-05
5.283685973863899,-0.79054965295102475,-0.047766995968465842,-0.0019859332252634594,10.111678690657474,-1.7355161143421813,-0.10714974439177979,-0.0050245266185092964,0.91598186739150045,-0.027879697239668107,0.0011167714699958694,0.0016048880644891556,5.1583669449687459,-0.036340045870331905,-0.058461489657773064,-0.019414180941891464,10.262659371169748,0.39459834262075921,0.03922125568344223,0.016193721682695453,1.0028229832604307,-0.15281947379050445,-0.014150357173500964,-0.0020272515390492925,5.3452332295022638,1.0764072899087005,0.10416206908848979,0.019672623284186168,10.04955690433226,-0.10902969900182277,-0.089823348931093921,-0.023596542114714694,1.1256521310242533,-0.068488701656689799,-0.012612502552435512,-0.0034111439315624892,5.3067268491919437,-0.43110843088522899,-0.066502896092503344,-0.014182456574289286,10.583831683729398,1.260919382426791,0.2360113555729014,0.072664861429281816,1.2357495419363451,0.021458100226345207,0.0014306903151194645,0.00052525262413742743,5.2601729839220015,-0.89323879003999374,-0.090835794873525805,-0.018816103864941418,10.625454299179669,2.7871774586283613,0.14040921878319895,0.0023710005959093582,1.3387539971140445,0.020750048687394745,6.6294875070739556e-06,-0.0017414464142043911,5.2708287033939358,-0.78665847529755539,-0.092478425611524431,-0.022763786880340378,10.151027424159073,-0.73916820855859433,-0.080010132260606964,-0.016120228949596836,1.4433038783434824,-0.053203504152049469,-0.00082959255138169517,0.0012638030478315662,5.1714497257839929,-0.35037303561721844,-0.051265021160940179,-0.011140882346754564,10.545616967589446,2.0669420200216391,0.17299451640985711,0.024862506097923946,1.5383663001624044,-0.19258016515757387,-0.018627403326721328,-0.0028957536600724408,5.2685422575041487,0.40260939801069906,0.039571697908280419,0.013150791487983874,10.094773468358891,-0.17162587752895908,-0.1746711237270222,-0.066524052820469873,1.4226496347837532,0.39603325306209186,0.036727252209301037,0.0063724680378100087,5.1973685884760643,0.24200983255982444,0.01516656882157982,-0.0012401887737586974,10.208176359071132,-0.7987416502353033,0.0095961318636845205,0.019546237525238659,1.3749828307341727,-0.070310673325974765,-0.011106807103205432,-0.0029205723822491965,5.1181210145785832,-0.64427052278593355,-0.036775238814437575,-0.0023576849144207063,10.338791174501781,0.26390181354490982,0.089792367968849277,0.020129818531356244,1.0764765588208374,-0.21633099315323098,-0.029223029172265123,-0.0065055216109662622,5.1310515231994795,0.016492583723442894,0.026125298755314059,0.014319011072585229,10.265044738043068,0.12074237557514408,0.062089275164491059,0.027195659706211496,0.84445121868877115,-0.034321788239916912,-0.010564993645953744,-0.0036086129292175312,5.3774541956587232,0.2076489422235874,-0.01602923977453714,-0.0093093129706447661,10.136804158564743,-0.35256017099583403,-0.007507315240992362,-0.0038678880869489609,1.4117536488963613,0.075316488686394401,0.0036847610369493446,0.00016504313284784657,5.3543014660870707,-0.41656745699493664,-0.015025409745720876,0.0059915772921088949,10.023032236811368,-2.0391298965198215,-0.10496230756363824,-0.0030967064802247882,1.3625218715685372,-0.042771375758231159,-0.007467516463999368,-0.0014014325281934553,5.60662497796433,1.2384436329217043,0.12964346992211076,0.024448362929055625,10.302520967763082,0.69700419087370213,0.026012293815340745,-0.0026460235023421236,1.1191607333569742,0.062017799009037838,0.0015221774830094942,0.00011903944992473423,5.496139766487075,0.027988329207593449,0.0065711017117257506,0.0004472446493055289,10.284601814609237,-0.37637146940874289,-0.089533067276234654,-0.024681393749381234,0.85449643526468755,-0.076018610370563233,-0.015704572374276603,-0.0050844345177684424,5.2370536869890687,1.0252723944158912,0.074523244717899353,0.0076355840455993081,10.01871785650612,0.86014856008381035,0.087883378814225116,0.019788938051284573,0.94556788615673903,0.057308188007279832,0.010169336728839174,0.0028735175953452795,5.1474576957597007,-0.77102744212402397,-0.012302853907837658,0.0084840219975683331,10.256032425009867,-0.4637741166488728,-0.083857187814874654,-0.023749775919342894,0.5274666352749896,-0.023245565944335394,-0.0051926734384094052,-0.0017055282736368491,5.1683048527862594,0.19793807508112729,0.010874491095327723,-0.00078853438169482334,10.370016265955943,-0.39000316505239468,-0.072825806289599532,-0.023741430138664515,0.09512063093365479,0.017762395615790249,0.0011627136835282419,2.5542994965345933e-05,5.2421208901783647,0.18917319646652106,0.0074265262181776592,0.0025057812732679607,10.410403734314304,1.8020305073881713,0.1816064444092215,0.038947958618173836,0.024611118122354884,0.0068470335231720037,0.00076259357658051293,0.00016150343494309612,5.4377455595747115,0.28511586740360872,-0.018246774095641571,-0.0093287569526004366,10.179049154421167,2.5178343576382094,0.38582171299590851,0.094573637484015372,0.91782952973467313,-0.03757639974934595,0.0022102183487804749,0.0012404935437142699,5.2042514308128105,-0.36329547125064243,-0.031540589132522667,-0.0022019312115959893,10.40244909231023,1.2027559600503539,0.11494445066119052,0.016345007816891886,0.53003162545508253,-0.0091615225807414342,0.0029162494411541524,0.0014084487004254521,5.2258180647254378,-0.65213732465332619,-0.049301337661608879,-0.0092722144478151036,10.16551176923614,-2.3724827502091719,-0.24036773933227473,-0.046600438206093414,0.09288937984413638,-0.0027587012936197003,-0.00020110723511342619,1.2270254421593239e-05,5.3306158517400206,-0.3622780349103028,-0.02488646432328824,-0.0028795803529531143,10.279407750881063,0.88189746822680437,0.052850430353736086,0.0090380558972638757,0.031832043702267665,0.0010327202065569766,-0.00012347568206690253,-6.5763393275740235e-05
